onset	duration	sector_1	sector_2	sector_3	sector_4	sector_5	sector_6	sector_7	sector_8	sector_9	sector_10	sector_11	sector_12	sector_13	sector_14	sector_15	sector_16	sector_17	sector_18	sector_19	sector_20	sector_21	sector_22	sector_23	sector_24	sector_25	sector_26	sector_27	sector_28	sector_29	sector_30	sector_31	sector_32	sector_33	sector_34	sector_35	sector_36	sector_37	sector_38	sector_39	sector_40	sector_41	sector_42	sector_43	sector_44	sector_45	sector_46	sector_47	sector_48	stim	resp	RT
15.045	3	0.333333333333333	0.666666666666667	1	0	0.333333333333333	0.666666666666667	0.666666666666667	0.333333333333333	0.666666666666667	1	0	0.333333333333333	0.333333333333333	0.333333333333333	0.666666666666667	0.666666666666667	0.333333333333333	0.333333333333333	0.666666666666667	0.333333333333333	0	1	0.666666666666667	1	1	1	0	1	1	0.666666666666667	0.333333333333333	0.333333333333333	0	0.333333333333333	0.333333333333333	0.666666666666667	0	1	0.333333333333333	0	0	0.666666666666667	0.666666666666667	0	0	0.333333333333333	1	1	n/a	n/a	n/a
18.062	3	1	0.333333333333333	0	0	0	0	0.666666666666667	0.333333333333333	0.333333333333333	0.666666666666667	0	1	0	0.666666666666667	1	0	0.333333333333333	0.333333333333333	1	0.666666666666667	0.666666666666667	0	0.333333333333333	0.666666666666667	1	0	0	0.333333333333333	0	0.666666666666667	0.666666666666667	0.666666666666667	0	1	0.666666666666667	0.333333333333333	0.333333333333333	0.666666666666667	0	0.666666666666667	1	0	1	0.333333333333333	1	0.333333333333333	0.333333333333333	0.333333333333333	n/a	n/a	n/a
21.097	3	1	1	0.666666666666667	1	0	1	0.333333333333333	0.666666666666667	0.666666666666667	0.333333333333333	0.333333333333333	1	0	0.666666666666667	0.666666666666667	1	0	0	0	0.333333333333333	0	0	1	1	0.333333333333333	1	1	1	0.666666666666667	0	0.333333333333333	0	1	0	0.333333333333333	1	0	0	0	0	1	1	0.666666666666667	0	0.666666666666667	0	0.666666666666667	0	n/a	n/a	n/a
24.131	3	0	0	1	0	1	0	0.333333333333333	0	1	1	0	0.666666666666667	0.333333333333333	0.333333333333333	1	0.666666666666667	1	0	0.333333333333333	0.333333333333333	0.666666666666667	1	1	1	1	0.333333333333333	0	0	0.333333333333333	0	0	1	0.666666666666667	1	1	0.333333333333333	0.666666666666667	0.666666666666667	0.666666666666667	0.666666666666667	0	1	0.333333333333333	0.666666666666667	0	1	0.666666666666667	1	n/a	n/a	n/a
27.049	3	0.666666666666667	0	0.666666666666667	0.333333333333333	0.666666666666667	0.666666666666667	0.333333333333333	0.666666666666667	0	0.666666666666667	1	0.333333333333333	1	0.333333333333333	0.333333333333333	0	1	0	0.333333333333333	0.333333333333333	0.333333333333333	0	1	0	1	1	1	0	0.333333333333333	1	0.666666666666667	1	0.666666666666667	0	0.333333333333333	1	0.333333333333333	0.666666666666667	1	0	0.666666666666667	0.666666666666667	0.666666666666667	0.666666666666667	0	0.666666666666667	0	0.666666666666667	n/a	n/a	n/a
30.084	3	1	0.333333333333333	0.666666666666667	1	1	1	0.333333333333333	0	1	0.333333333333333	0	0.333333333333333	1	0.666666666666667	0.333333333333333	0.666666666666667	0.666666666666667	0.666666666666667	0.666666666666667	0.666666666666667	0.333333333333333	0	1	1	1	1	0.333333333333333	0	0.666666666666667	0	0.666666666666667	0.333333333333333	1	0.333333333333333	0.666666666666667	0	0	0.333333333333333	0	0	0	1	1	0	0	0.333333333333333	0.333333333333333	1	n/a	n/a	n/a
33.119	3	0.333333333333333	0	0	1	1	1	0.666666666666667	1	0.666666666666667	0.333333333333333	0	0.333333333333333	0	0	0	0	0	0.666666666666667	1	0.666666666666667	0.333333333333333	0.666666666666667	0.333333333333333	0.333333333333333	1	0	0	0.666666666666667	0	1	0.666666666666667	0.666666666666667	1	1	0.666666666666667	0	0.333333333333333	0.666666666666667	0.333333333333333	0.333333333333333	0.666666666666667	1	0.333333333333333	0	0.333333333333333	0	1	0	n/a	n/a	n/a
36.153	3	0.666666666666667	0.666666666666667	0	1	0	0.333333333333333	0	0	0	0.333333333333333	0	1	0.333333333333333	0.333333333333333	0	0.333333333333333	0.333333333333333	0.666666666666667	0.333333333333333	0.666666666666667	0	0.333333333333333	0.666666666666667	0	0.333333333333333	1	1	0	0.333333333333333	1	0	1	0	1	0.333333333333333	0	0	1	0	1	0	0.666666666666667	1	0.666666666666667	0.333333333333333	0	0.666666666666667	1	n/a	n/a	n/a
39.071	3	0.666666666666667	0	0.666666666666667	1	0	0	1	0	0.666666666666667	1	1	1	0.666666666666667	1	0.333333333333333	0.666666666666667	1	0.333333333333333	0.333333333333333	0	0.666666666666667	0.333333333333333	1	1	0	0.333333333333333	1	0	0	0.666666666666667	0	0	0	0	0.333333333333333	1	0	0	0	0.666666666666667	0.666666666666667	0.666666666666667	1	0	1	1	0.666666666666667	0	n/a	n/a	n/a
42.106	3	0.333333333333333	1	1	0	1	0.333333333333333	1	0.666666666666667	0.333333333333333	1	0	1	0.333333333333333	1	0.666666666666667	0.666666666666667	0.333333333333333	0.333333333333333	0	0.333333333333333	0.666666666666667	0.666666666666667	0	0.666666666666667	0.333333333333333	0.333333333333333	0	0.333333333333333	0.333333333333333	1	0.333333333333333	1	1	0	0.333333333333333	1	0	1	0.333333333333333	1	1	0.666666666666667	0	1	1	0	0.666666666666667	1	n/a	n/a	n/a
45.14	3	0.333333333333333	0	0.333333333333333	0.333333333333333	1	1	0	0.666666666666667	0.333333333333333	0.666666666666667	0.333333333333333	0	1	0.666666666666667	0.666666666666667	0.666666666666667	0.333333333333333	0	0.666666666666667	0.666666666666667	0.333333333333333	0.666666666666667	0.333333333333333	0.333333333333333	0.666666666666667	1	1	0.666666666666667	0.333333333333333	1	0	1	1	0.333333333333333	0.333333333333333	1	1	0	0.666666666666667	0.666666666666667	0	0.666666666666667	1	0	1	0.333333333333333	0.666666666666667	0.666666666666667	n/a	n/a	n/a
48.058	3	0	0	1	0	1	1	0.333333333333333	0.666666666666667	1	0.333333333333333	0	0.333333333333333	0	0.666666666666667	1	1	0.666666666666667	0.333333333333333	0.666666666666667	1	1	0.666666666666667	0.333333333333333	1	0.666666666666667	0.333333333333333	0.333333333333333	0.666666666666667	0.333333333333333	0	0.666666666666667	1	0.666666666666667	0.333333333333333	0.333333333333333	0.666666666666667	1	1	0.333333333333333	0.666666666666667	1	0.333333333333333	0	1	1	0	0.666666666666667	0.666666666666667	n/a	n/a	n/a
51.092	3	1	1	0.666666666666667	0	1	1	0.333333333333333	1	0.666666666666667	0.666666666666667	1	0.666666666666667	0.333333333333333	0.333333333333333	0.333333333333333	0	0.666666666666667	1	0.666666666666667	0	0.333333333333333	1	0	0.666666666666667	0.666666666666667	0.333333333333333	1	0.666666666666667	0.666666666666667	0.666666666666667	0.333333333333333	0.333333333333333	0.666666666666667	0.333333333333333	0.666666666666667	0	0.666666666666667	1	0	0	0	0	1	0	0	0	0.333333333333333	1	n/a	n/a	n/a
54.128	3	0.666666666666667	0	0.666666666666667	1	0.666666666666667	0.333333333333333	0	0.333333333333333	1	0	1	0.666666666666667	1	1	0.333333333333333	0.666666666666667	0.666666666666667	0.666666666666667	0.333333333333333	0.333333333333333	1	0.666666666666667	1	0	1	0.666666666666667	0.333333333333333	0	0	0	0	1	0	0.333333333333333	1	0.666666666666667	0.666666666666667	0.666666666666667	0.333333333333333	0.666666666666667	1	1	0.333333333333333	0.666666666666667	0.666666666666667	0.666666666666667	0.333333333333333	1	n/a	n/a	n/a
57.046	3	0	1	0.333333333333333	0.333333333333333	0	0.333333333333333	0.666666666666667	0.666666666666667	0.666666666666667	1	1	1	0.333333333333333	0	1	0.666666666666667	0	0.666666666666667	0.666666666666667	0.666666666666667	0	0	0.666666666666667	0.666666666666667	1	1	0.333333333333333	0	0.666666666666667	0.666666666666667	0	0.333333333333333	1	0.333333333333333	0.333333333333333	0	1	0	0	0.333333333333333	0.666666666666667	0.666666666666667	0	0.333333333333333	0.666666666666667	0	1	1	n/a	n/a	n/a
60.08	3	0.333333333333333	0	1	1	0	1	1	0.666666666666667	1	0	0.666666666666667	0	0.666666666666667	0	0	1	0.666666666666667	0.333333333333333	0	0	1	0	1	1	0.666666666666667	0.333333333333333	0.666666666666667	0.666666666666667	1	0	1	1	0.666666666666667	0.666666666666667	0.333333333333333	0.333333333333333	0.333333333333333	0.333333333333333	0.666666666666667	0	0.666666666666667	1	0	0.666666666666667	0.666666666666667	0	0	1	n/a	n/a	n/a
63.114	3	0.333333333333333	0.666666666666667	0	0.333333333333333	1	0.333333333333333	0.666666666666667	0.333333333333333	0.333333333333333	1	0.333333333333333	0	0.666666666666667	0	0.666666666666667	1	0	1	0.333333333333333	0.666666666666667	0.333333333333333	0	1	0	1	0	0	0.333333333333333	1	0.333333333333333	0.666666666666667	0	0	0.333333333333333	0	1	1	0.333333333333333	0	0.666666666666667	0.666666666666667	0.333333333333333	0.666666666666667	1	0.666666666666667	0	0	0.666666666666667	n/a	n/a	n/a
66.149	3	1	1	0.666666666666667	0.333333333333333	1	0.333333333333333	0.666666666666667	0.333333333333333	1	0.333333333333333	0.333333333333333	1	0.333333333333333	0	0.333333333333333	0	0	0.666666666666667	0.333333333333333	0.333333333333333	0	0.333333333333333	0.666666666666667	0	0	0	0	0.333333333333333	0	0.333333333333333	0.666666666666667	1	1	0.333333333333333	0.333333333333333	0.333333333333333	0	1	0	0	0.666666666666667	0.666666666666667	0.333333333333333	0.333333333333333	1	0.333333333333333	0.666666666666667	0.666666666666667	n/a	n/a	n/a
69.067	3	0.333333333333333	0.333333333333333	0.333333333333333	0.666666666666667	0.333333333333333	0	0.333333333333333	0.666666666666667	0.333333333333333	1	1	0.333333333333333	0	1	1	1	0.333333333333333	1	0.333333333333333	0.666666666666667	0.333333333333333	0.666666666666667	0	1	0.333333333333333	0.333333333333333	1	0	1	1	0	0.666666666666667	0	0.333333333333333	0.666666666666667	0.333333333333333	1	0	0	0	0.666666666666667	0.333333333333333	0	0.666666666666667	0.666666666666667	0	0	0	n/a	n/a	n/a
72.101	3	0.666666666666667	1	0.666666666666667	0	1	0	0.666666666666667	0.333333333333333	0	0	0.333333333333333	0	0	0	0.666666666666667	0	0.666666666666667	0.666666666666667	0.333333333333333	1	0.666666666666667	0.333333333333333	1	0	0.666666666666667	1	1	1	1	0.666666666666667	0	0.333333333333333	1	1	0.666666666666667	0.666666666666667	0.666666666666667	1	0.666666666666667	1	0.333333333333333	0	0.333333333333333	0.333333333333333	0.333333333333333	0.333333333333333	0.666666666666667	0.666666666666667	n/a	n/a	n/a
75.135	3	1	0.333333333333333	0	0.333333333333333	1	0	0.333333333333333	0.333333333333333	0	0	0	0	0.333333333333333	0	0.333333333333333	0	0	1	0.333333333333333	0.333333333333333	0	1	0.333333333333333	0	1	0.666666666666667	0.333333333333333	0	0.333333333333333	0	1	0.666666666666667	1	0.333333333333333	0.333333333333333	0.666666666666667	0.333333333333333	0	0.333333333333333	0.666666666666667	1	0.333333333333333	1	0.666666666666667	0.666666666666667	0	0.333333333333333	0	n/a	n/a	n/a
78.053	3	0.666666666666667	0.333333333333333	1	0	0	0.333333333333333	0.666666666666667	0.666666666666667	1	0	0.333333333333333	0	0.333333333333333	0.333333333333333	0.666666666666667	0	0.666666666666667	0.666666666666667	0.666666666666667	1	0	0.333333333333333	0	0.333333333333333	0.333333333333333	0.666666666666667	1	0.333333333333333	0.333333333333333	0.333333333333333	1	0	0.666666666666667	0	0.666666666666667	1	0.666666666666667	0.333333333333333	0.666666666666667	0.333333333333333	1	0.666666666666667	0.333333333333333	0.666666666666667	0.333333333333333	0.333333333333333	0.666666666666667	0	n/a	n/a	n/a
81.089	3	1	0.666666666666667	0	0	0.333333333333333	0.666666666666667	0	1	0.666666666666667	0.333333333333333	0	1	1	0.333333333333333	0.666666666666667	0	0.666666666666667	0	1	0	0	0.333333333333333	0.333333333333333	0	1	0.333333333333333	0.666666666666667	0.666666666666667	1	0.333333333333333	0.333333333333333	0.333333333333333	0.333333333333333	0.333333333333333	0	0	0.666666666666667	0.666666666666667	0.333333333333333	0	1	0	0	0	0.666666666666667	0.666666666666667	0.666666666666667	0	n/a	n/a	n/a
84.106	3	1	0.333333333333333	0	0.333333333333333	0.333333333333333	0.666666666666667	0	1	0.333333333333333	0.666666666666667	0.666666666666667	1	1	1	0.333333333333333	0.666666666666667	1	0	0.666666666666667	0.666666666666667	0.666666666666667	0.666666666666667	0	0.666666666666667	0.333333333333333	1	0	0.666666666666667	0.666666666666667	0.333333333333333	0	0.666666666666667	1	0.666666666666667	1	1	0.666666666666667	1	0.666666666666667	0.666666666666667	1	1	0.666666666666667	0.666666666666667	0.666666666666667	0.333333333333333	0	0.666666666666667	n/a	n/a	n/a
87.14	3	0.333333333333333	0.666666666666667	0.333333333333333	0	1	0.666666666666667	0.333333333333333	0.666666666666667	0.333333333333333	0.666666666666667	0	0.333333333333333	0.333333333333333	0	1	1	1	0	0	0.333333333333333	0.333333333333333	0	0	0.666666666666667	0.333333333333333	1	0.666666666666667	0	0.666666666666667	0	0.333333333333333	0	0.666666666666667	0.666666666666667	0.333333333333333	1	0.333333333333333	0.333333333333333	0	0.666666666666667	0.333333333333333	0.333333333333333	1	1	0	0	0.666666666666667	0.333333333333333	n/a	n/a	n/a
90.058	3	0	1	0.666666666666667	0.333333333333333	0	1	1	0.666666666666667	0	0.333333333333333	0	0.333333333333333	1	1	1	0.666666666666667	0.666666666666667	0.333333333333333	0.333333333333333	0.333333333333333	0	1	1	1	0	0.333333333333333	0	0.666666666666667	0	0	0	0.666666666666667	1	0.666666666666667	1	1	0	1	0.666666666666667	0.333333333333333	0	0.666666666666667	1	0.333333333333333	0.666666666666667	0.333333333333333	1	0.333333333333333	n/a	n/a	n/a
93.093	3	0.666666666666667	1	0.333333333333333	0.333333333333333	1	0.333333333333333	0.333333333333333	0.666666666666667	0.666666666666667	0.666666666666667	1	1	1	1	1	0.666666666666667	0.666666666666667	1	0	0.333333333333333	0.666666666666667	0.333333333333333	0.666666666666667	0.333333333333333	1	0.333333333333333	0.333333333333333	0.666666666666667	0	1	0	1	0.333333333333333	0.666666666666667	0.666666666666667	0.333333333333333	1	0.666666666666667	1	0	0	0	0.666666666666667	1	0	1	0	0.333333333333333	n/a	n/a	n/a
96.128	3	0	0.333333333333333	1	1	0	0.333333333333333	0.666666666666667	0.333333333333333	1	0.666666666666667	0.333333333333333	0.333333333333333	0	0	1	0.666666666666667	0.333333333333333	0	1	0.333333333333333	0	0	0	0.333333333333333	0.333333333333333	0.333333333333333	0.333333333333333	0.333333333333333	1	0	0	1	0.333333333333333	0	0.666666666666667	0	0.666666666666667	0.333333333333333	0.666666666666667	0.333333333333333	0	0.333333333333333	1	0	0.666666666666667	0.333333333333333	0.333333333333333	0	n/a	n/a	n/a
99.046	3	1	0	0.333333333333333	0.333333333333333	0.666666666666667	0.666666666666667	0.333333333333333	0.333333333333333	0.333333333333333	0	0.666666666666667	0.333333333333333	1	0.666666666666667	0.333333333333333	0	0.666666666666667	0	1	1	1	0.333333333333333	0.333333333333333	0.333333333333333	0.666666666666667	1	0.666666666666667	0	0.333333333333333	0.333333333333333	0	0	1	1	0.333333333333333	0.333333333333333	1	0	0	0.333333333333333	0	0.333333333333333	0.333333333333333	0.666666666666667	0.333333333333333	0.333333333333333	0.666666666666667	0	n/a	n/a	n/a
102.08	3	0.666666666666667	0	0.333333333333333	0	0	1	0.666666666666667	0	0.666666666666667	0.666666666666667	1	0.333333333333333	0.666666666666667	0	1	0.666666666666667	1	1	0.666666666666667	1	0.333333333333333	0	0.333333333333333	1	0	0	1	0.666666666666667	0.666666666666667	0.333333333333333	0.666666666666667	1	0.333333333333333	0.666666666666667	1	0.333333333333333	0	1	0.666666666666667	0	1	0.333333333333333	0	0	1	0.333333333333333	0	0.333333333333333	n/a	n/a	n/a
105.115	3	0.333333333333333	1	1	0.666666666666667	0	1	0.666666666666667	1	0.666666666666667	0.333333333333333	0.666666666666667	1	0.666666666666667	0.666666666666667	0.333333333333333	1	0	0.666666666666667	0.666666666666667	0.333333333333333	1	0.333333333333333	0	0.666666666666667	0	0.333333333333333	0.333333333333333	0.333333333333333	0	0.666666666666667	1	0.333333333333333	1	0.666666666666667	0.666666666666667	0	0.333333333333333	1	0.333333333333333	1	0.666666666666667	0.666666666666667	0.333333333333333	1	0.666666666666667	0.666666666666667	0	0.333333333333333	n/a	n/a	n/a
108.149	3	0.666666666666667	1	1	1	0.666666666666667	0.666666666666667	0	0.333333333333333	0.333333333333333	0.666666666666667	1	0	1	0.666666666666667	0.333333333333333	0.333333333333333	1	1	0.333333333333333	1	0	0	0	1	1	0.666666666666667	1	0.666666666666667	1	0.333333333333333	1	0	0	0.333333333333333	0	0	0.666666666666667	0.333333333333333	1	0	0	0.666666666666667	1	1	0	1	1	0.666666666666667	n/a	n/a	n/a
111.067	3	1	0	0	0.333333333333333	0.333333333333333	1	1	1	1	0.333333333333333	0	1	0.333333333333333	0.666666666666667	0.666666666666667	0	1	1	0.333333333333333	1	0	0.666666666666667	1	0.666666666666667	1	0	1	0.333333333333333	0	0.666666666666667	0.333333333333333	0.333333333333333	0.666666666666667	0	0.333333333333333	0.666666666666667	1	0.333333333333333	0.666666666666667	0.333333333333333	0	0.666666666666667	1	1	0.333333333333333	0	0.666666666666667	0	n/a	n/a	n/a
114.102	3	0	0.666666666666667	0.666666666666667	0.333333333333333	0.333333333333333	0.333333333333333	0	0.666666666666667	1	0.333333333333333	0.666666666666667	0.333333333333333	1	1	0.333333333333333	1	0	1	0.666666666666667	0	1	0	0.333333333333333	0	0.666666666666667	0	0	0.666666666666667	0	0	0.333333333333333	0.666666666666667	0.666666666666667	1	1	1	0.333333333333333	0.666666666666667	1	0.333333333333333	0	0.333333333333333	1	0.333333333333333	1	0.333333333333333	0	0	n/a	n/a	n/a
117.136	3	1	0.666666666666667	0.666666666666667	0.333333333333333	0	0	0.666666666666667	0	0.333333333333333	0.666666666666667	0.666666666666667	0.333333333333333	0	1	1	1	0	0	0.333333333333333	0.333333333333333	0	0.333333333333333	0.333333333333333	0.666666666666667	0.333333333333333	1	0.333333333333333	0	0	1	0	0.333333333333333	1	0.333333333333333	0	1	0.666666666666667	0.666666666666667	1	1	0.666666666666667	0.666666666666667	1	0	0.333333333333333	1	0	0.666666666666667	n/a	n/a	n/a
120.054	3	0	0.666666666666667	0.333333333333333	1	1	0	0.666666666666667	0.333333333333333	0	0.666666666666667	0.666666666666667	0.333333333333333	0.666666666666667	0.333333333333333	0.333333333333333	0.333333333333333	0	0	0.666666666666667	0.333333333333333	0.666666666666667	0.666666666666667	1	0	0.333333333333333	0.333333333333333	1	0.333333333333333	0	0.666666666666667	1	0	1	0	0.333333333333333	0.666666666666667	0.333333333333333	0.666666666666667	1	0.666666666666667	0.333333333333333	0.333333333333333	0	0.666666666666667	0.333333333333333	0	0.666666666666667	0	n/a	n/a	n/a
123.089	3	0.333333333333333	0	0	0.333333333333333	0.666666666666667	0.333333333333333	0.333333333333333	0	0.333333333333333	1	0.666666666666667	0	0.333333333333333	0.333333333333333	0.666666666666667	1	0.333333333333333	0.666666666666667	0.666666666666667	0.666666666666667	0.333333333333333	1	1	1	0	0.333333333333333	0.666666666666667	1	1	0	0.666666666666667	0	1	0.333333333333333	1	0.666666666666667	0.666666666666667	0.666666666666667	0	0	0	1	0.666666666666667	0.666666666666667	1	0.333333333333333	0	0.666666666666667	n/a	n/a	n/a
126.124	3	1	0.333333333333333	0.333333333333333	0.666666666666667	1	0.333333333333333	1	0	0.666666666666667	0.333333333333333	1	0	1	0.666666666666667	0.333333333333333	0.666666666666667	0	0.333333333333333	0.333333333333333	0.666666666666667	0.333333333333333	0.333333333333333	0.333333333333333	0	0.333333333333333	0.333333333333333	0	0.666666666666667	1	0.666666666666667	0.666666666666667	0	1	0.333333333333333	0.666666666666667	1	0	0.666666666666667	0	0.333333333333333	0	0	0.333333333333333	1	1	0	0.333333333333333	0.333333333333333	n/a	n/a	n/a
129.158	3	0.333333333333333	0.333333333333333	0	1	0.333333333333333	0.333333333333333	1	0.333333333333333	0	0	0	0.666666666666667	1	0.666666666666667	0.666666666666667	0.666666666666667	0	1	1	0.333333333333333	0.666666666666667	1	1	0.333333333333333	1	0.333333333333333	0.333333333333333	0.666666666666667	0.666666666666667	0	0.666666666666667	0	0.666666666666667	0.333333333333333	0.333333333333333	0.666666666666667	0	0	0.333333333333333	1	0	0.333333333333333	0.333333333333333	0	0.333333333333333	0.666666666666667	0.333333333333333	1	n/a	n/a	n/a
132.076	3	0.666666666666667	0	1	0.333333333333333	0	0.666666666666667	1	0.666666666666667	1	0.666666666666667	1	0.333333333333333	1	0	1	0	1	1	0.333333333333333	0.333333333333333	0.666666666666667	0	0.333333333333333	0.666666666666667	0.333333333333333	0	0.666666666666667	0	0.333333333333333	1	1	0.666666666666667	0.666666666666667	0.666666666666667	1	0.333333333333333	0.666666666666667	0.333333333333333	1	1	1	0.333333333333333	0.666666666666667	1	0	0.666666666666667	0	0	n/a	n/a	n/a
135.11	3	0.333333333333333	0.666666666666667	0.333333333333333	0.333333333333333	0.333333333333333	0	1	0.333333333333333	0.333333333333333	0.333333333333333	0.666666666666667	0.666666666666667	0.333333333333333	1	1	0.333333333333333	0	0	0.666666666666667	0	0.666666666666667	0.333333333333333	1	0.666666666666667	0.666666666666667	0	1	1	0.666666666666667	1	0	0.333333333333333	1	0.666666666666667	0	0.333333333333333	0	0	0.666666666666667	1	0.333333333333333	0.666666666666667	0.666666666666667	0.666666666666667	1	0.666666666666667	0.333333333333333	0.333333333333333	n/a	n/a	n/a
138.145	3	0	0.666666666666667	0	1	1	0.666666666666667	0	0.666666666666667	0.666666666666667	1	0.666666666666667	1	0	0.666666666666667	0.666666666666667	1	0.666666666666667	0.666666666666667	1	1	0.333333333333333	0.666666666666667	0	1	0.333333333333333	0	1	1	0.333333333333333	1	0.666666666666667	0.333333333333333	0	0.666666666666667	0	0	0.333333333333333	0.333333333333333	0.333333333333333	0.333333333333333	0.666666666666667	1	1	0	0.333333333333333	0	0	0.333333333333333	n/a	n/a	n/a
141.063	3	0.666666666666667	1	0.666666666666667	0.666666666666667	0.666666666666667	1	0	1	1	1	0.333333333333333	1	1	0	0	1	0.666666666666667	1	1	0.333333333333333	0.666666666666667	0.333333333333333	0.333333333333333	1	0	1	0.333333333333333	0	0.333333333333333	0	0	0	1	0.333333333333333	0.333333333333333	0.666666666666667	1	1	0.666666666666667	0.333333333333333	0	0.333333333333333	0.333333333333333	0	0.333333333333333	1	0	0.333333333333333	n/a	n/a	n/a
144.097	3	0.666666666666667	0.333333333333333	0.333333333333333	1	0.333333333333333	0.666666666666667	1	0.333333333333333	0	1	0.333333333333333	0.666666666666667	0.666666666666667	1	0.333333333333333	0.333333333333333	1	0.333333333333333	0.666666666666667	0.333333333333333	0.666666666666667	0	1	0.666666666666667	0.333333333333333	0.666666666666667	0.666666666666667	0.333333333333333	1	0.333333333333333	0	0	0.333333333333333	1	0.333333333333333	0	0.666666666666667	0	0.333333333333333	0.666666666666667	0	1	0	1	0	0.333333333333333	0.333333333333333	0.333333333333333	n/a	n/a	n/a
147.132	3	1	0	1	0.666666666666667	1	1	0.333333333333333	0.666666666666667	0.333333333333333	1	0.666666666666667	1	0.333333333333333	0	0.333333333333333	0.666666666666667	0	0.666666666666667	1	0.666666666666667	1	0.333333333333333	0	0	0	0.333333333333333	0.333333333333333	0	0	0.333333333333333	0.666666666666667	1	0.666666666666667	1	0.333333333333333	0.333333333333333	1	0.666666666666667	0.333333333333333	0.666666666666667	0.666666666666667	0	1	0.333333333333333	1	0.666666666666667	0.666666666666667	1	n/a	n/a	n/a
150.049	3	0.333333333333333	0.666666666666667	0.333333333333333	0.333333333333333	1	0.666666666666667	0.333333333333333	0	0.333333333333333	0	0.333333333333333	0	1	0.333333333333333	1	0.333333333333333	0.333333333333333	1	1	1	0.333333333333333	0.666666666666667	1	0	0	0	0.333333333333333	0.666666666666667	0.333333333333333	0	0.666666666666667	1	0.666666666666667	0.666666666666667	1	0	0	0.666666666666667	0.666666666666667	0.333333333333333	1	0	0	1	0.666666666666667	0.333333333333333	0.666666666666667	0.333333333333333	n/a	n/a	n/a
153.085	3	0.333333333333333	1	1	0.666666666666667	0	1	1	1	0.333333333333333	0.333333333333333	0	0	1	1	0.666666666666667	0.666666666666667	0	1	1	0	0	0	1	1	0.333333333333333	0	1	0	0.666666666666667	1	0.666666666666667	0	0	0	0.666666666666667	0.333333333333333	0.666666666666667	0.666666666666667	0.333333333333333	1	0.333333333333333	0.666666666666667	0.666666666666667	0.666666666666667	1	1	0.333333333333333	0.666666666666667	n/a	n/a	n/a
156.119	3	0.333333333333333	0.666666666666667	0.333333333333333	0.333333333333333	1	0	1	0.333333333333333	0.666666666666667	0.333333333333333	0.666666666666667	0	0.333333333333333	0.333333333333333	1	1	0.666666666666667	0.666666666666667	0.333333333333333	0.666666666666667	1	0.666666666666667	0	0.666666666666667	0.333333333333333	0.666666666666667	0.333333333333333	1	1	0.666666666666667	0.666666666666667	0.666666666666667	0.333333333333333	1	1	0.666666666666667	0.666666666666667	0.333333333333333	0.333333333333333	0.666666666666667	0	0	0	0	0	1	0	0.666666666666667	n/a	n/a	n/a
159.154	3	0	0	1	0	0.333333333333333	0.666666666666667	0.666666666666667	1	0	0.666666666666667	0.666666666666667	0.333333333333333	0.333333333333333	1	1	0.666666666666667	0	1	0.333333333333333	1	1	0	0.666666666666667	1	0.666666666666667	0.333333333333333	1	0	1	0.666666666666667	1	0.333333333333333	0.666666666666667	0.333333333333333	1	1	0.333333333333333	0.333333333333333	0.333333333333333	0	0	0.333333333333333	0.666666666666667	0.333333333333333	1	0	0.666666666666667	0	n/a	n/a	n/a
162.072	3	0.666666666666667	1	1	0.333333333333333	0.666666666666667	0.666666666666667	0.333333333333333	0	0.333333333333333	1	0	0.333333333333333	1	0.666666666666667	0	0.333333333333333	0.666666666666667	0	0	0.333333333333333	0	0.333333333333333	0	0	0.333333333333333	1	1	1	0.666666666666667	0.666666666666667	0.666666666666667	0.666666666666667	1	0.666666666666667	0	1	0.333333333333333	0.666666666666667	1	1	1	0	1	0.666666666666667	0.666666666666667	1	0.333333333333333	0	n/a	n/a	n/a
165.106	3	0.333333333333333	0.333333333333333	0.333333333333333	0.666666666666667	0	1	0.333333333333333	0.666666666666667	0	1	0.666666666666667	0	1	0	0.666666666666667	0.666666666666667	0.666666666666667	0.666666666666667	0.333333333333333	1	0.666666666666667	0.333333333333333	0.333333333333333	1	0.333333333333333	0.666666666666667	1	0.666666666666667	0	0.666666666666667	0.333333333333333	1	0	0.666666666666667	0.666666666666667	0	0.333333333333333	1	0.666666666666667	0.666666666666667	0.666666666666667	0.666666666666667	0	0.333333333333333	0.666666666666667	1	1	0.333333333333333	n/a	n/a	n/a
168.14	3	0.666666666666667	1	1	0.666666666666667	0.666666666666667	0.666666666666667	1	0.333333333333333	0	0.666666666666667	0.666666666666667	1	1	0.333333333333333	1	0.666666666666667	0	0.666666666666667	1	1	0	1	0	1	0.666666666666667	0.333333333333333	1	0.666666666666667	0.333333333333333	0.333333333333333	1	0.666666666666667	1	0	0	1	1	0	1	0	1	0	0.666666666666667	0.333333333333333	0.333333333333333	0	1	0.333333333333333	n/a	n/a	n/a
171.058	3	0.666666666666667	0	0.666666666666667	0	0.666666666666667	0	1	0.333333333333333	0.666666666666667	0.666666666666667	1	0.333333333333333	1	0.333333333333333	0.333333333333333	1	0	0.333333333333333	1	1	0.333333333333333	0.666666666666667	0.333333333333333	1	0	0.333333333333333	0.333333333333333	0.333333333333333	0.666666666666667	0	0.333333333333333	0	0.666666666666667	0.333333333333333	1	0.333333333333333	1	0.333333333333333	0	0	0.666666666666667	0	1	0.333333333333333	0	0.333333333333333	0.333333333333333	0.333333333333333	n/a	n/a	n/a
174.093	3	1	0	0	0	0.666666666666667	1	0	0.333333333333333	0.333333333333333	0.333333333333333	0.666666666666667	0	0	0.333333333333333	0	0.666666666666667	0	0	1	0	0	0.333333333333333	0.666666666666667	0.666666666666667	0.666666666666667	0.666666666666667	0	0	0.333333333333333	0.666666666666667	1	1	0.333333333333333	0.333333333333333	0	0.666666666666667	0.333333333333333	0.333333333333333	0.333333333333333	0.333333333333333	0	1	0	0.333333333333333	0.333333333333333	0.333333333333333	0.333333333333333	0.666666666666667	n/a	n/a	n/a
177.128	3	0.333333333333333	1	1	0.333333333333333	0.333333333333333	0.666666666666667	0.333333333333333	0.666666666666667	0	0.333333333333333	1	1	0	0.666666666666667	0.333333333333333	1	0.333333333333333	1	1	0	1	0.666666666666667	0	0.333333333333333	0.666666666666667	0.666666666666667	1	0	0	0.333333333333333	0.666666666666667	0.666666666666667	1	1	0.666666666666667	1	0.666666666666667	0.666666666666667	1	0.333333333333333	0.666666666666667	0	0	0.333333333333333	0.333333333333333	0.666666666666667	0.666666666666667	0.333333333333333	n/a	n/a	n/a
180.046	3	1	0.666666666666667	1	0.333333333333333	0	0.333333333333333	1	0.333333333333333	0.666666666666667	1	1	0	0.666666666666667	1	0.333333333333333	1	1	0.333333333333333	0.333333333333333	1	0.666666666666667	0.666666666666667	1	0	0.666666666666667	1	0	1	0	0.666666666666667	0.333333333333333	0.333333333333333	0.333333333333333	0.333333333333333	0	0	0.666666666666667	0.666666666666667	0.666666666666667	1	0.333333333333333	0.666666666666667	0	0.666666666666667	0.666666666666667	1	0.333333333333333	0	n/a	n/a	n/a
183.08	3	1	0.333333333333333	1	1	0.333333333333333	0	0	1	0	0	0.333333333333333	0.666666666666667	0	0.666666666666667	0.333333333333333	1	1	1	0.666666666666667	0	0	0.666666666666667	1	0.666666666666667	0.333333333333333	0	0.666666666666667	0	1	0.333333333333333	0	0	0	1	0	1	0.333333333333333	0	0.666666666666667	0	0.666666666666667	0.333333333333333	0.333333333333333	0.666666666666667	0	0.666666666666667	0.666666666666667	0	n/a	n/a	n/a
186.115	3	0.333333333333333	1	0.333333333333333	1	1	0	0	0	0.333333333333333	0.333333333333333	0	1	0.333333333333333	1	1	1	0.333333333333333	0.333333333333333	0.333333333333333	0	0	0	1	1	0.333333333333333	0.666666666666667	0.333333333333333	0.666666666666667	0.333333333333333	0	0.333333333333333	0.333333333333333	0	0.666666666666667	0.333333333333333	0	0.666666666666667	1	0	0.333333333333333	0.333333333333333	0.666666666666667	1	1	1	0.333333333333333	0.333333333333333	0.666666666666667	n/a	n/a	n/a
189.149	3	1	0.333333333333333	0	0.333333333333333	0	0	0	1	0.666666666666667	0	0	0.666666666666667	0	0.666666666666667	0.333333333333333	0.666666666666667	1	0	0	0.666666666666667	0.333333333333333	0.666666666666667	0	0	0.333333333333333	0.666666666666667	1	1	0.333333333333333	0	0	0	0	0.666666666666667	0	1	0.666666666666667	1	0.666666666666667	0.666666666666667	0	0	0.333333333333333	0.333333333333333	1	0.333333333333333	1	0	n/a	n/a	n/a
192.067	3	1	0.333333333333333	0.333333333333333	0	0.333333333333333	1	0.333333333333333	0.666666666666667	0.333333333333333	0.666666666666667	1	1	0.666666666666667	0.666666666666667	0	0.333333333333333	0	0.666666666666667	0.333333333333333	0.333333333333333	0.333333333333333	1	1	1	0.333333333333333	1	0	1	1	0.333333333333333	0.666666666666667	0.666666666666667	0.666666666666667	0.666666666666667	0	0.666666666666667	0.333333333333333	0.333333333333333	1	0	1	0.666666666666667	0.666666666666667	0.666666666666667	0	0	0	0.333333333333333	n/a	n/a	n/a
195.102	3	1	0	0	1	0.666666666666667	1	0.666666666666667	1	0	0	0.333333333333333	0	0.666666666666667	0	0	0.333333333333333	1	0	0.666666666666667	1	0.333333333333333	0.666666666666667	0.333333333333333	0	0.333333333333333	0.333333333333333	0	0	0.333333333333333	0	1	0	1	0	0.333333333333333	0.333333333333333	0.333333333333333	1	0.333333333333333	1	0.333333333333333	0	0.333333333333333	0.666666666666667	0.666666666666667	0.666666666666667	0.666666666666667	1	n/a	n/a	n/a
198.136	3	0.333333333333333	1	0.333333333333333	1	1	0	0.333333333333333	0.333333333333333	0	0.333333333333333	0.333333333333333	1	0.666666666666667	0.666666666666667	0	0.666666666666667	0.333333333333333	0.333333333333333	0.666666666666667	0.333333333333333	0.333333333333333	0.666666666666667	1	0	0.666666666666667	0	0.333333333333333	0.666666666666667	0.333333333333333	1	1	0.333333333333333	0	0	0	0	0.666666666666667	1	0.666666666666667	1	0.333333333333333	0.666666666666667	0.666666666666667	0.666666666666667	0	0	1	0.666666666666667	n/a	n/a	n/a
201.054	3	0.666666666666667	0.333333333333333	1	0.666666666666667	0.333333333333333	1	1	0.333333333333333	0.333333333333333	0.333333333333333	0	0	0.333333333333333	0	0	0.333333333333333	1	1	0	1	0.333333333333333	0.666666666666667	1	0.666666666666667	0	0.666666666666667	0	1	0.666666666666667	1	1	0	0.666666666666667	0.333333333333333	1	0.666666666666667	1	1	0.333333333333333	0	0.333333333333333	1	0	1	0.333333333333333	0	1	0.666666666666667	n/a	n/a	n/a
204.089	3	0.666666666666667	0	0	0.333333333333333	0.333333333333333	1	0	1	1	0.666666666666667	0	0	0	0	1	1	0.666666666666667	0.666666666666667	0.333333333333333	0.333333333333333	0.666666666666667	0.666666666666667	1	1	0.333333333333333	0.333333333333333	0	0.333333333333333	0.333333333333333	0.333333333333333	0.666666666666667	1	0.666666666666667	0.666666666666667	0	1	0.333333333333333	1	1	1	0.666666666666667	1	1	0.666666666666667	0.333333333333333	0.666666666666667	0.666666666666667	0.333333333333333	n/a	n/a	n/a
207.124	3	1	0.333333333333333	0.333333333333333	0	0.333333333333333	0.666666666666667	0.333333333333333	1	1	0.333333333333333	0.333333333333333	0.333333333333333	0.666666666666667	1	0	0.666666666666667	0	0.333333333333333	1	1	0	0	0	0.666666666666667	0	0.666666666666667	0.333333333333333	0.666666666666667	0.333333333333333	0	1	0.666666666666667	0	0.333333333333333	0.666666666666667	0.666666666666667	0.333333333333333	0	0	0.666666666666667	0.666666666666667	0	0	0.333333333333333	0	0.333333333333333	0	0.333333333333333	n/a	n/a	n/a
210.141	3	1	0	0.666666666666667	0.666666666666667	1	0	0	0	0	0.666666666666667	0.333333333333333	1	0.333333333333333	0.666666666666667	1	0.333333333333333	1	1	0.333333333333333	0.666666666666667	0	0.333333333333333	0	0	1	0	0.333333333333333	0	0	1	0.666666666666667	0.666666666666667	0	0.666666666666667	1	1	0.333333333333333	0.333333333333333	0.333333333333333	1	1	0.666666666666667	1	1	0.333333333333333	0.666666666666667	0.333333333333333	0	n/a	n/a	n/a
213.142	3	0.333333333333333	0	0.666666666666667	1	0	0	0	0	0.333333333333333	0.333333333333333	0	0.333333333333333	0.666666666666667	0.666666666666667	1	0	1	1	1	0.666666666666667	1	1	0	0.333333333333333	0	0.333333333333333	1	0	1	1	1	1	0.666666666666667	0.333333333333333	0.333333333333333	1	0	0.666666666666667	1	1	1	0.333333333333333	1	0.333333333333333	1	0.333333333333333	1	1	n/a	n/a	n/a
216.06	3	0.666666666666667	0	0.666666666666667	1	0.333333333333333	0.333333333333333	1	0	1	1	1	0.666666666666667	1	0.333333333333333	0.333333333333333	1	0	1	0.333333333333333	1	0	0.333333333333333	0.333333333333333	1	0.666666666666667	1	0	0	1	1	0.666666666666667	1	0.666666666666667	0	1	0.666666666666667	0	0.333333333333333	0.333333333333333	0	1	0	1	0.666666666666667	1	1	0.333333333333333	0	n/a	n/a	n/a
219.095	3	0	0.666666666666667	1	0	0	0.333333333333333	0.666666666666667	0.666666666666667	0	1	0.333333333333333	0.666666666666667	0.666666666666667	0	0.333333333333333	0.666666666666667	1	0	0.333333333333333	1	0.333333333333333	0	0.333333333333333	1	0.666666666666667	0.333333333333333	0	0.333333333333333	1	0.666666666666667	0.333333333333333	1	1	0.333333333333333	0	0.333333333333333	1	0	0	0.666666666666667	0.333333333333333	0.666666666666667	0.333333333333333	0.333333333333333	0	0.333333333333333	0.666666666666667	0.666666666666667	n/a	n/a	n/a
222.13	3	0.333333333333333	0	1	1	1	1	0.333333333333333	0	0	0.333333333333333	0	0.666666666666667	1	0	0	0.666666666666667	1	1	0.333333333333333	0.333333333333333	1	0	0.666666666666667	0.666666666666667	1	0.666666666666667	0.666666666666667	0.333333333333333	0.333333333333333	1	0.333333333333333	0.666666666666667	0	0.666666666666667	0.333333333333333	1	0	0.666666666666667	1	0.666666666666667	1	1	0.333333333333333	0.333333333333333	1	0	0	0.333333333333333	n/a	n/a	n/a
225.048	3	0.666666666666667	0.333333333333333	0	1	0	1	0	0.666666666666667	0.333333333333333	0.666666666666667	0	0.333333333333333	0	0	1	1	1	0	1	0.666666666666667	0.333333333333333	0.333333333333333	1	1	0.333333333333333	0	0.666666666666667	0.333333333333333	0.666666666666667	0.333333333333333	0.666666666666667	0.666666666666667	0	0.333333333333333	0	0.333333333333333	0.333333333333333	1	0	0	0.666666666666667	1	0	0.666666666666667	1	0.333333333333333	0.333333333333333	0.666666666666667	n/a	n/a	n/a
228.082	3	0	0	1	1	0.333333333333333	0.666666666666667	0.333333333333333	0.333333333333333	0	1	0	0	0	0.333333333333333	0.333333333333333	0.333333333333333	1	0.333333333333333	0.333333333333333	0.666666666666667	0.333333333333333	0	0.666666666666667	0	1	0.666666666666667	0.666666666666667	0.333333333333333	1	0.666666666666667	0	0.666666666666667	0.666666666666667	0.333333333333333	1	0	0	1	0	0	0	0.666666666666667	1	0.333333333333333	0.333333333333333	1	0.666666666666667	0	n/a	n/a	n/a
231.117	3	0	0.333333333333333	0.333333333333333	0.333333333333333	0	1	0.666666666666667	0	0.333333333333333	0	0.666666666666667	0	1	0.333333333333333	0.333333333333333	0.333333333333333	0.666666666666667	0.666666666666667	0	1	0.333333333333333	0	0.666666666666667	0	0.666666666666667	0.333333333333333	1	0.666666666666667	1	0.666666666666667	1	0.333333333333333	1	0.666666666666667	1	0	0.333333333333333	1	0.666666666666667	0.666666666666667	0	0	1	0	0.333333333333333	1	1	1	n/a	n/a	n/a
234.151	3	0.333333333333333	1	1	1	0.333333333333333	1	1	0.666666666666667	1	1	1	0	0.666666666666667	0	0.333333333333333	0.666666666666667	0.666666666666667	0	1	0.666666666666667	1	0.333333333333333	0	0	1	0	0.666666666666667	1	0.333333333333333	0.666666666666667	0	0	1	0	1	1	0.666666666666667	0.333333333333333	0.666666666666667	0.666666666666667	1	0	0	0	0	0.333333333333333	1	1	n/a	n/a	n/a
237.069	3	0.666666666666667	0.333333333333333	0.333333333333333	0.666666666666667	0	0.333333333333333	0.333333333333333	0	1	0.666666666666667	0.666666666666667	0	0	0	0.666666666666667	0	0.666666666666667	0.333333333333333	0.333333333333333	1	1	1	1	1	0.333333333333333	0.666666666666667	0.666666666666667	0.666666666666667	1	1	0	0.333333333333333	0.333333333333333	0.333333333333333	0.333333333333333	0.333333333333333	0.666666666666667	1	1	0.666666666666667	0	1	1	0.333333333333333	0.333333333333333	1	0.333333333333333	1	n/a	n/a	n/a
240.103	3	1	0	0.333333333333333	0.666666666666667	0	0.666666666666667	0.666666666666667	0.333333333333333	0.666666666666667	0.666666666666667	0.333333333333333	1	0.333333333333333	1	0	0	0.333333333333333	0.333333333333333	0.666666666666667	0	0	0	0.666666666666667	0	0.666666666666667	0	0	0.666666666666667	1	0	0.666666666666667	0.666666666666667	1	0	0.333333333333333	0.666666666666667	1	0.333333333333333	0	1	0.333333333333333	0.666666666666667	0.666666666666667	1	0.333333333333333	0.666666666666667	1	0.333333333333333	n/a	n/a	n/a
243.138	3	1	0.333333333333333	0.333333333333333	0.666666666666667	0	0	0	0	0.666666666666667	0	1	0	0.666666666666667	0.666666666666667	0.333333333333333	0.666666666666667	0.333333333333333	0	0	0	0.666666666666667	0.666666666666667	0.666666666666667	1	0.666666666666667	0	0.666666666666667	0.666666666666667	1	0	0.666666666666667	1	0.333333333333333	1	0.666666666666667	0	1	0.666666666666667	1	0	0	0	0	0.333333333333333	0	0	1	1	n/a	n/a	n/a
246.056	3	0	0.666666666666667	0.333333333333333	0.666666666666667	0	0.333333333333333	0	0.666666666666667	0.666666666666667	1	0	0.333333333333333	0	0.333333333333333	0	0.666666666666667	1	1	0.333333333333333	0	1	0.333333333333333	0.666666666666667	0.666666666666667	0.333333333333333	0	0.666666666666667	1	1	1	0	0.333333333333333	0.333333333333333	0	0.333333333333333	0	0.333333333333333	0.666666666666667	0.333333333333333	0.666666666666667	0	0	0	1	1	0	0.666666666666667	1	n/a	n/a	n/a
249.09	3	0.333333333333333	0.666666666666667	0	0.666666666666667	0.666666666666667	0.666666666666667	1	1	0	0.333333333333333	1	0	0.333333333333333	0.333333333333333	0.333333333333333	1	0.333333333333333	0.666666666666667	0.666666666666667	0.666666666666667	1	0.666666666666667	0	0	0.666666666666667	1	1	1	0.333333333333333	0.333333333333333	0.333333333333333	0.333333333333333	0	1	0.666666666666667	0	1	0.333333333333333	0.666666666666667	0.333333333333333	0.666666666666667	0.333333333333333	1	1	0	1	0.666666666666667	0.333333333333333	n/a	n/a	n/a
252.126	3	0.666666666666667	1	0.333333333333333	0	0	1	1	0.666666666666667	0.333333333333333	0.333333333333333	0.333333333333333	1	0.333333333333333	0	1	0.333333333333333	0.666666666666667	0.666666666666667	0	0	0	0.333333333333333	1	0	0	0	0	0.333333333333333	0.333333333333333	0	0	0	0.333333333333333	1	0	0.333333333333333	1	1	0	1	0.666666666666667	0	0.333333333333333	0.333333333333333	0	1	0	0.666666666666667	n/a	n/a	n/a
255.16	3	0.666666666666667	0.333333333333333	0.333333333333333	0.333333333333333	0.333333333333333	0.666666666666667	1	0	0.333333333333333	1	0.666666666666667	0.666666666666667	0	0.333333333333333	0	1	0.666666666666667	1	0	0.666666666666667	0	0.333333333333333	0.333333333333333	0	0.666666666666667	0.333333333333333	1	1	0	0.333333333333333	1	0	0.333333333333333	0.333333333333333	0	0.666666666666667	0	0.333333333333333	0	0.333333333333333	0.333333333333333	0.333333333333333	0.333333333333333	0.333333333333333	1	1	0	0	n/a	n/a	n/a
258.078	3	0	0.666666666666667	0	1	0	0	0.333333333333333	1	1	0.666666666666667	0	1	1	0.333333333333333	0.333333333333333	0.333333333333333	1	0.333333333333333	1	0.666666666666667	0.333333333333333	1	1	0.333333333333333	0.333333333333333	0.333333333333333	1	0.666666666666667	0.333333333333333	1	0	0.333333333333333	0	0	0	0.333333333333333	0	1	0.333333333333333	0.333333333333333	0.666666666666667	1	1	0	0	1	0.333333333333333	0.333333333333333	n/a	n/a	n/a
261.112	3	0.666666666666667	0	1	1	0.333333333333333	0.333333333333333	0.666666666666667	0	1	0.666666666666667	0.333333333333333	0.666666666666667	1	0.666666666666667	0.666666666666667	0.666666666666667	1	0	1	0	0.333333333333333	1	0	1	0	0.666666666666667	0.333333333333333	0	0	0.333333333333333	1	0.666666666666667	0.666666666666667	1	0.333333333333333	0.666666666666667	1	0	0.666666666666667	1	0	0.333333333333333	1	0.666666666666667	0.333333333333333	0.666666666666667	1	0.333333333333333	n/a	n/a	n/a
264.147	3	0.666666666666667	0	0.333333333333333	0.333333333333333	0.666666666666667	1	0.666666666666667	0.666666666666667	0.666666666666667	0.666666666666667	0.333333333333333	0.333333333333333	0.333333333333333	0.333333333333333	0	0.666666666666667	0.333333333333333	0.666666666666667	0.666666666666667	1	0.666666666666667	1	0.666666666666667	0.666666666666667	0	0.333333333333333	0	0	0.333333333333333	0	0.666666666666667	0.333333333333333	0.333333333333333	0.666666666666667	0.666666666666667	0.666666666666667	0.333333333333333	0.666666666666667	0.666666666666667	0.666666666666667	1	1	1	0	0	0	1	0	n/a	n/a	n/a
267.065	3	0	0.333333333333333	0.666666666666667	0.666666666666667	0	1	0.666666666666667	0	0	0	0.666666666666667	0.333333333333333	0.666666666666667	1	0.666666666666667	0	0.333333333333333	1	0.333333333333333	0.333333333333333	1	1	0.666666666666667	0.333333333333333	0	1	0	1	0.666666666666667	0	0.333333333333333	0.666666666666667	0.666666666666667	0	1	1	1	0	0.666666666666667	0.666666666666667	1	0.666666666666667	0.333333333333333	0.333333333333333	0	0.333333333333333	0	0.333333333333333	n/a	n/a	n/a
270.099	3	0	0.666666666666667	0	0.666666666666667	0.333333333333333	0.333333333333333	0.333333333333333	0.666666666666667	0.333333333333333	1	1	0.666666666666667	0.333333333333333	1	1	0.666666666666667	1	1	0	0	0.333333333333333	0.333333333333333	0.666666666666667	0.333333333333333	0.666666666666667	0.333333333333333	0.666666666666667	0.666666666666667	0.666666666666667	0	0	0.333333333333333	0.666666666666667	0.666666666666667	0	1	0.333333333333333	1	0.666666666666667	0	0.333333333333333	0	1	0.333333333333333	0.333333333333333	1	1	0.333333333333333	n/a	n/a	n/a
273.133	3	0.666666666666667	0.666666666666667	0.333333333333333	0.333333333333333	0	0	0.666666666666667	1	0.333333333333333	1	0	1	0.333333333333333	1	0.666666666666667	0.333333333333333	0.333333333333333	1	0	1	0.333333333333333	1	0.333333333333333	0.333333333333333	0.666666666666667	1	0	0.666666666666667	0	1	1	0.333333333333333	0.333333333333333	0.333333333333333	0	1	0.333333333333333	0	0.666666666666667	0	0.333333333333333	0.333333333333333	1	0.666666666666667	0	0.666666666666667	1	1	n/a	n/a	n/a
276.051	3	1	0.333333333333333	0	0.666666666666667	1	1	1	0.666666666666667	0.333333333333333	0	1	0.666666666666667	0.666666666666667	0	1	0.666666666666667	0.333333333333333	1	0	0	1	0.333333333333333	0.666666666666667	0.333333333333333	1	0	1	1	0.333333333333333	0.333333333333333	1	0	0.333333333333333	1	0.666666666666667	0	1	0	0.333333333333333	0	0	0.666666666666667	0.666666666666667	0	0	1	0	0	n/a	n/a	n/a
279.087	3	0	1	0.666666666666667	1	0.666666666666667	0.666666666666667	0.666666666666667	0.666666666666667	0	0	0.333333333333333	1	0.666666666666667	0.333333333333333	0.666666666666667	0.666666666666667	0.333333333333333	0.666666666666667	0	1	0.333333333333333	0	1	0.333333333333333	0.666666666666667	0.666666666666667	0	0.666666666666667	0	0.666666666666667	0.333333333333333	0.666666666666667	1	0.666666666666667	1	0.666666666666667	0.333333333333333	0	1	1	0.666666666666667	0.666666666666667	0	0.666666666666667	1	0.666666666666667	0	0.666666666666667	n/a	n/a	n/a
282.121	3	0.333333333333333	0.333333333333333	0.666666666666667	1	0.333333333333333	0.333333333333333	0.666666666666667	0.333333333333333	1	1	0.333333333333333	1	0	1	0.333333333333333	0.333333333333333	0.333333333333333	0.666666666666667	1	0	0.333333333333333	1	0	0.666666666666667	0.333333333333333	0.666666666666667	0.333333333333333	0.666666666666667	0.666666666666667	1	0.666666666666667	0.666666666666667	0	0.333333333333333	0.666666666666667	0	1	0	0	0.333333333333333	0	1	0.333333333333333	0	1	0	0	0	n/a	n/a	n/a
285.155	3	0	1	0.666666666666667	0.666666666666667	0.333333333333333	0.666666666666667	1	0	0	0	1	1	0	0.666666666666667	1	0.333333333333333	0	0	0.333333333333333	0.333333333333333	0.666666666666667	0.333333333333333	0.666666666666667	0.333333333333333	1	0.333333333333333	0	0	0.666666666666667	1	0.666666666666667	0.666666666666667	1	0.666666666666667	0.333333333333333	1	0.333333333333333	0.666666666666667	0.666666666666667	0	1	0.666666666666667	0	0.666666666666667	1	0.333333333333333	0.666666666666667	0.666666666666667	n/a	n/a	n/a
288.073	3	0.666666666666667	0.666666666666667	1	0	0.333333333333333	0.333333333333333	0.666666666666667	1	0	0.666666666666667	1	0.333333333333333	0.333333333333333	1	1	0.333333333333333	1	0	0.333333333333333	1	0.333333333333333	1	0	0.333333333333333	0.666666666666667	0.333333333333333	1	0.333333333333333	1	1	1	0	0.333333333333333	1	1	0.666666666666667	0.666666666666667	0.333333333333333	0.333333333333333	0	1	0	0	0.666666666666667	0	0.333333333333333	0.333333333333333	0.666666666666667	n/a	n/a	n/a
291.108	3	1	0	0.333333333333333	0	0.333333333333333	0.666666666666667	1	0.333333333333333	0.333333333333333	0.333333333333333	1	0	1	0.666666666666667	0	0.333333333333333	0	0.666666666666667	0.666666666666667	0.666666666666667	1	0.666666666666667	0.666666666666667	1	0.666666666666667	0.333333333333333	0	0.333333333333333	1	0.333333333333333	0.333333333333333	0.666666666666667	0.333333333333333	0	1	1	1	0.333333333333333	0.666666666666667	0.666666666666667	0.666666666666667	1	1	1	0	0.666666666666667	1	0.333333333333333	n/a	n/a	n/a
294.142	3	0.666666666666667	0.666666666666667	0.666666666666667	0.333333333333333	0.666666666666667	0.666666666666667	0.333333333333333	0.333333333333333	0.666666666666667	0	1	0.666666666666667	0.333333333333333	0.333333333333333	1	0.333333333333333	0.333333333333333	1	0.333333333333333	0	1	1	0.333333333333333	0.333333333333333	0.333333333333333	0	0.333333333333333	0.666666666666667	0.666666666666667	0	0.333333333333333	0.666666666666667	0.333333333333333	1	0.333333333333333	0.333333333333333	1	0.333333333333333	0.666666666666667	0	1	0.666666666666667	0.666666666666667	1	0.333333333333333	0.333333333333333	0	0.333333333333333	n/a	n/a	n/a
297.06	3	0.333333333333333	0.666666666666667	1	1	0	1	1	0	0.666666666666667	0.666666666666667	0.333333333333333	0.333333333333333	0	0	0.666666666666667	1	0.666666666666667	0.333333333333333	0.333333333333333	1	0.333333333333333	0	1	1	0	0.666666666666667	1	0.666666666666667	1	0.333333333333333	0	0.333333333333333	0.333333333333333	0.666666666666667	1	0	1	0.666666666666667	0	0.333333333333333	0	0.333333333333333	0.333333333333333	1	0.333333333333333	0.666666666666667	0.333333333333333	1	n/a	n/a	n/a
300.094	3	1	0	0.666666666666667	0.666666666666667	0.333333333333333	1	0	0	0.666666666666667	1	0.333333333333333	0.666666666666667	0.666666666666667	0.666666666666667	0	0	0.666666666666667	0.333333333333333	1	0.333333333333333	0.666666666666667	0	0	0.333333333333333	0.333333333333333	0	0.333333333333333	0.333333333333333	0.666666666666667	0.333333333333333	0.333333333333333	1	0	0.666666666666667	0.333333333333333	1	0.666666666666667	1	1	0.333333333333333	0.666666666666667	0.333333333333333	1	1	0.333333333333333	1	1	0.333333333333333	n/a	n/a	n/a
303.13	3	0.666666666666667	0	0	0.333333333333333	0.666666666666667	0.666666666666667	0.333333333333333	0	1	0	0	0	0.666666666666667	0.333333333333333	0	0.666666666666667	0.333333333333333	0.333333333333333	0	1	0.333333333333333	1	0.333333333333333	0.666666666666667	1	0.666666666666667	0.666666666666667	0.333333333333333	0	1	0.333333333333333	0	1	0.666666666666667	0	0	0	0.666666666666667	0	0	0	0.333333333333333	0.666666666666667	0.666666666666667	0	0.333333333333333	0.333333333333333	0.333333333333333	n/a	n/a	n/a
306.048	3	0	0	0	0.333333333333333	1	0.333333333333333	0.666666666666667	0.333333333333333	1	0.333333333333333	1	1	0	0.333333333333333	0	0	0	1	0.333333333333333	0.666666666666667	0.666666666666667	1	0	0.666666666666667	0.666666666666667	0	1	0.333333333333333	0	0	0.333333333333333	0.333333333333333	0.333333333333333	1	0.666666666666667	0.666666666666667	0.666666666666667	0	0	0.333333333333333	0.333333333333333	1	1	1	0	1	0.333333333333333	0	n/a	n/a	n/a
309.082	3	0.333333333333333	0.333333333333333	0.666666666666667	0.666666666666667	1	0	0	1	0.666666666666667	0.333333333333333	0.666666666666667	1	0.333333333333333	0	0.666666666666667	0.666666666666667	1	1	0	0.333333333333333	0	0	0.333333333333333	0	0	0.666666666666667	0	0.666666666666667	0.666666666666667	0.666666666666667	1	0.333333333333333	1	1	0.333333333333333	0	0.666666666666667	0	0.333333333333333	0.333333333333333	0.666666666666667	1	0	1	0	0.666666666666667	0	0.333333333333333	n/a	n/a	n/a
312.117	3	1	0.333333333333333	0.333333333333333	0	0.333333333333333	0.666666666666667	0.333333333333333	0.666666666666667	0.333333333333333	0	1	1	1	0.666666666666667	0.666666666666667	0.666666666666667	0.333333333333333	0	1	0.666666666666667	0.333333333333333	0.333333333333333	0.333333333333333	1	0	0.666666666666667	0	0.333333333333333	0.333333333333333	0.333333333333333	0.666666666666667	0.333333333333333	0.333333333333333	0.333333333333333	1	0	0.333333333333333	1	0	0.666666666666667	0.666666666666667	0.666666666666667	0.333333333333333	0.333333333333333	1	0.666666666666667	1	0.666666666666667	n/a	n/a	n/a
0	0.8	n/a	n/a	n/a	n/a	n/a	n/a	n/a	n/a	n/a	n/a	n/a	n/a	n/a	n/a	n/a	n/a	n/a	n/a	n/a	n/a	n/a	n/a	n/a	n/a	n/a	n/a	n/a	n/a	n/a	n/a	n/a	n/a	n/a	n/a	n/a	n/a	n/a	n/a	n/a	n/a	n/a	n/a	n/a	n/a	n/a	n/a	n/a	n/a	5	n/a	n/a
1.6	0.8	n/a	n/a	n/a	n/a	n/a	n/a	n/a	n/a	n/a	n/a	n/a	n/a	n/a	n/a	n/a	n/a	n/a	n/a	n/a	n/a	n/a	n/a	n/a	n/a	n/a	n/a	n/a	n/a	n/a	n/a	n/a	n/a	n/a	n/a	n/a	n/a	n/a	n/a	n/a	n/a	n/a	n/a	n/a	n/a	n/a	n/a	n/a	n/a	7	n/a	n/a
3.2	0.8	n/a	n/a	n/a	n/a	n/a	n/a	n/a	n/a	n/a	n/a	n/a	n/a	n/a	n/a	n/a	n/a	n/a	n/a	n/a	n/a	n/a	n/a	n/a	n/a	n/a	n/a	n/a	n/a	n/a	n/a	n/a	n/a	n/a	n/a	n/a	n/a	n/a	n/a	n/a	n/a	n/a	n/a	n/a	n/a	n/a	n/a	n/a	n/a	5	n/a	n/a
4.8	0.8	n/a	n/a	n/a	n/a	n/a	n/a	n/a	n/a	n/a	n/a	n/a	n/a	n/a	n/a	n/a	n/a	n/a	n/a	n/a	n/a	n/a	n/a	n/a	n/a	n/a	n/a	n/a	n/a	n/a	n/a	n/a	n/a	n/a	n/a	n/a	n/a	n/a	n/a	n/a	n/a	n/a	n/a	n/a	n/a	n/a	n/a	n/a	n/a	5	n/a	n/a
6.4	0.8	n/a	n/a	n/a	n/a	n/a	n/a	n/a	n/a	n/a	n/a	n/a	n/a	n/a	n/a	n/a	n/a	n/a	n/a	n/a	n/a	n/a	n/a	n/a	n/a	n/a	n/a	n/a	n/a	n/a	n/a	n/a	n/a	n/a	n/a	n/a	n/a	n/a	n/a	n/a	n/a	n/a	n/a	n/a	n/a	n/a	n/a	n/a	n/a	5	n/a	n/a
8	0.8	n/a	n/a	n/a	n/a	n/a	n/a	n/a	n/a	n/a	n/a	n/a	n/a	n/a	n/a	n/a	n/a	n/a	n/a	n/a	n/a	n/a	n/a	n/a	n/a	n/a	n/a	n/a	n/a	n/a	n/a	n/a	n/a	n/a	n/a	n/a	n/a	n/a	n/a	n/a	n/a	n/a	n/a	n/a	n/a	n/a	n/a	n/a	n/a	7	n/a	n/a
9.6	0.8	n/a	n/a	n/a	n/a	n/a	n/a	n/a	n/a	n/a	n/a	n/a	n/a	n/a	n/a	n/a	n/a	n/a	n/a	n/a	n/a	n/a	n/a	n/a	n/a	n/a	n/a	n/a	n/a	n/a	n/a	n/a	n/a	n/a	n/a	n/a	n/a	n/a	n/a	n/a	n/a	n/a	n/a	n/a	n/a	n/a	n/a	n/a	n/a	5	n/a	n/a
11.2	0.8	n/a	n/a	n/a	n/a	n/a	n/a	n/a	n/a	n/a	n/a	n/a	n/a	n/a	n/a	n/a	n/a	n/a	n/a	n/a	n/a	n/a	n/a	n/a	n/a	n/a	n/a	n/a	n/a	n/a	n/a	n/a	n/a	n/a	n/a	n/a	n/a	n/a	n/a	n/a	n/a	n/a	n/a	n/a	n/a	n/a	n/a	n/a	n/a	5	n/a	n/a
12.8	0.8	n/a	n/a	n/a	n/a	n/a	n/a	n/a	n/a	n/a	n/a	n/a	n/a	n/a	n/a	n/a	n/a	n/a	n/a	n/a	n/a	n/a	n/a	n/a	n/a	n/a	n/a	n/a	n/a	n/a	n/a	n/a	n/a	n/a	n/a	n/a	n/a	n/a	n/a	n/a	n/a	n/a	n/a	n/a	n/a	n/a	n/a	n/a	n/a	5	n/a	n/a
14.4	0.8	n/a	n/a	n/a	n/a	n/a	n/a	n/a	n/a	n/a	n/a	n/a	n/a	n/a	n/a	n/a	n/a	n/a	n/a	n/a	n/a	n/a	n/a	n/a	n/a	n/a	n/a	n/a	n/a	n/a	n/a	n/a	n/a	n/a	n/a	n/a	n/a	n/a	n/a	n/a	n/a	n/a	n/a	n/a	n/a	n/a	n/a	n/a	n/a	7	n/a	n/a
16	0.8	n/a	n/a	n/a	n/a	n/a	n/a	n/a	n/a	n/a	n/a	n/a	n/a	n/a	n/a	n/a	n/a	n/a	n/a	n/a	n/a	n/a	n/a	n/a	n/a	n/a	n/a	n/a	n/a	n/a	n/a	n/a	n/a	n/a	n/a	n/a	n/a	n/a	n/a	n/a	n/a	n/a	n/a	n/a	n/a	n/a	n/a	n/a	n/a	5	n/a	n/a
17.6	0.8	n/a	n/a	n/a	n/a	n/a	n/a	n/a	n/a	n/a	n/a	n/a	n/a	n/a	n/a	n/a	n/a	n/a	n/a	n/a	n/a	n/a	n/a	n/a	n/a	n/a	n/a	n/a	n/a	n/a	n/a	n/a	n/a	n/a	n/a	n/a	n/a	n/a	n/a	n/a	n/a	n/a	n/a	n/a	n/a	n/a	n/a	n/a	n/a	7	n/a	n/a
19.2	0.8	n/a	n/a	n/a	n/a	n/a	n/a	n/a	n/a	n/a	n/a	n/a	n/a	n/a	n/a	n/a	n/a	n/a	n/a	n/a	n/a	n/a	n/a	n/a	n/a	n/a	n/a	n/a	n/a	n/a	n/a	n/a	n/a	n/a	n/a	n/a	n/a	n/a	n/a	n/a	n/a	n/a	n/a	n/a	n/a	n/a	n/a	n/a	n/a	7	n/a	n/a
20.8	0.8	n/a	n/a	n/a	n/a	n/a	n/a	n/a	n/a	n/a	n/a	n/a	n/a	n/a	n/a	n/a	n/a	n/a	n/a	n/a	n/a	n/a	n/a	n/a	n/a	n/a	n/a	n/a	n/a	n/a	n/a	n/a	n/a	n/a	n/a	n/a	n/a	n/a	n/a	n/a	n/a	n/a	n/a	n/a	n/a	n/a	n/a	n/a	n/a	7	n/a	n/a
22.4	0.8	n/a	n/a	n/a	n/a	n/a	n/a	n/a	n/a	n/a	n/a	n/a	n/a	n/a	n/a	n/a	n/a	n/a	n/a	n/a	n/a	n/a	n/a	n/a	n/a	n/a	n/a	n/a	n/a	n/a	n/a	n/a	n/a	n/a	n/a	n/a	n/a	n/a	n/a	n/a	n/a	n/a	n/a	n/a	n/a	n/a	n/a	n/a	n/a	5	n/a	n/a
24	0.8	n/a	n/a	n/a	n/a	n/a	n/a	n/a	n/a	n/a	n/a	n/a	n/a	n/a	n/a	n/a	n/a	n/a	n/a	n/a	n/a	n/a	n/a	n/a	n/a	n/a	n/a	n/a	n/a	n/a	n/a	n/a	n/a	n/a	n/a	n/a	n/a	n/a	n/a	n/a	n/a	n/a	n/a	n/a	n/a	n/a	n/a	n/a	n/a	7	n/a	n/a
25.6	0.8	n/a	n/a	n/a	n/a	n/a	n/a	n/a	n/a	n/a	n/a	n/a	n/a	n/a	n/a	n/a	n/a	n/a	n/a	n/a	n/a	n/a	n/a	n/a	n/a	n/a	n/a	n/a	n/a	n/a	n/a	n/a	n/a	n/a	n/a	n/a	n/a	n/a	n/a	n/a	n/a	n/a	n/a	n/a	n/a	n/a	n/a	n/a	n/a	5	n/a	n/a
27.2	0.8	n/a	n/a	n/a	n/a	n/a	n/a	n/a	n/a	n/a	n/a	n/a	n/a	n/a	n/a	n/a	n/a	n/a	n/a	n/a	n/a	n/a	n/a	n/a	n/a	n/a	n/a	n/a	n/a	n/a	n/a	n/a	n/a	n/a	n/a	n/a	n/a	n/a	n/a	n/a	n/a	n/a	n/a	n/a	n/a	n/a	n/a	n/a	n/a	7	n/a	n/a
28.8	0.8	n/a	n/a	n/a	n/a	n/a	n/a	n/a	n/a	n/a	n/a	n/a	n/a	n/a	n/a	n/a	n/a	n/a	n/a	n/a	n/a	n/a	n/a	n/a	n/a	n/a	n/a	n/a	n/a	n/a	n/a	n/a	n/a	n/a	n/a	n/a	n/a	n/a	n/a	n/a	n/a	n/a	n/a	n/a	n/a	n/a	n/a	n/a	n/a	5	n/a	n/a
30.4	0.8	n/a	n/a	n/a	n/a	n/a	n/a	n/a	n/a	n/a	n/a	n/a	n/a	n/a	n/a	n/a	n/a	n/a	n/a	n/a	n/a	n/a	n/a	n/a	n/a	n/a	n/a	n/a	n/a	n/a	n/a	n/a	n/a	n/a	n/a	n/a	n/a	n/a	n/a	n/a	n/a	n/a	n/a	n/a	n/a	n/a	n/a	n/a	n/a	7	n/a	n/a
32	0.8	n/a	n/a	n/a	n/a	n/a	n/a	n/a	n/a	n/a	n/a	n/a	n/a	n/a	n/a	n/a	n/a	n/a	n/a	n/a	n/a	n/a	n/a	n/a	n/a	n/a	n/a	n/a	n/a	n/a	n/a	n/a	n/a	n/a	n/a	n/a	n/a	n/a	n/a	n/a	n/a	n/a	n/a	n/a	n/a	n/a	n/a	n/a	n/a	7	n/a	n/a
33.6	0.8	n/a	n/a	n/a	n/a	n/a	n/a	n/a	n/a	n/a	n/a	n/a	n/a	n/a	n/a	n/a	n/a	n/a	n/a	n/a	n/a	n/a	n/a	n/a	n/a	n/a	n/a	n/a	n/a	n/a	n/a	n/a	n/a	n/a	n/a	n/a	n/a	n/a	n/a	n/a	n/a	n/a	n/a	n/a	n/a	n/a	n/a	n/a	n/a	7	n/a	n/a
35.2	0.8	n/a	n/a	n/a	n/a	n/a	n/a	n/a	n/a	n/a	n/a	n/a	n/a	n/a	n/a	n/a	n/a	n/a	n/a	n/a	n/a	n/a	n/a	n/a	n/a	n/a	n/a	n/a	n/a	n/a	n/a	n/a	n/a	n/a	n/a	n/a	n/a	n/a	n/a	n/a	n/a	n/a	n/a	n/a	n/a	n/a	n/a	n/a	n/a	5	n/a	n/a
36.8	0.8	n/a	n/a	n/a	n/a	n/a	n/a	n/a	n/a	n/a	n/a	n/a	n/a	n/a	n/a	n/a	n/a	n/a	n/a	n/a	n/a	n/a	n/a	n/a	n/a	n/a	n/a	n/a	n/a	n/a	n/a	n/a	n/a	n/a	n/a	n/a	n/a	n/a	n/a	n/a	n/a	n/a	n/a	n/a	n/a	n/a	n/a	n/a	n/a	7	n/a	n/a
38.4	0.8	n/a	n/a	n/a	n/a	n/a	n/a	n/a	n/a	n/a	n/a	n/a	n/a	n/a	n/a	n/a	n/a	n/a	n/a	n/a	n/a	n/a	n/a	n/a	n/a	n/a	n/a	n/a	n/a	n/a	n/a	n/a	n/a	n/a	n/a	n/a	n/a	n/a	n/a	n/a	n/a	n/a	n/a	n/a	n/a	n/a	n/a	n/a	n/a	7	n/a	n/a
40	0.8	n/a	n/a	n/a	n/a	n/a	n/a	n/a	n/a	n/a	n/a	n/a	n/a	n/a	n/a	n/a	n/a	n/a	n/a	n/a	n/a	n/a	n/a	n/a	n/a	n/a	n/a	n/a	n/a	n/a	n/a	n/a	n/a	n/a	n/a	n/a	n/a	n/a	n/a	n/a	n/a	n/a	n/a	n/a	n/a	n/a	n/a	n/a	n/a	7	n/a	n/a
41.6	0.8	n/a	n/a	n/a	n/a	n/a	n/a	n/a	n/a	n/a	n/a	n/a	n/a	n/a	n/a	n/a	n/a	n/a	n/a	n/a	n/a	n/a	n/a	n/a	n/a	n/a	n/a	n/a	n/a	n/a	n/a	n/a	n/a	n/a	n/a	n/a	n/a	n/a	n/a	n/a	n/a	n/a	n/a	n/a	n/a	n/a	n/a	n/a	n/a	5	n/a	n/a
43.2	0.8	n/a	n/a	n/a	n/a	n/a	n/a	n/a	n/a	n/a	n/a	n/a	n/a	n/a	n/a	n/a	n/a	n/a	n/a	n/a	n/a	n/a	n/a	n/a	n/a	n/a	n/a	n/a	n/a	n/a	n/a	n/a	n/a	n/a	n/a	n/a	n/a	n/a	n/a	n/a	n/a	n/a	n/a	n/a	n/a	n/a	n/a	n/a	n/a	5	n/a	n/a
44.8	0.8	n/a	n/a	n/a	n/a	n/a	n/a	n/a	n/a	n/a	n/a	n/a	n/a	n/a	n/a	n/a	n/a	n/a	n/a	n/a	n/a	n/a	n/a	n/a	n/a	n/a	n/a	n/a	n/a	n/a	n/a	n/a	n/a	n/a	n/a	n/a	n/a	n/a	n/a	n/a	n/a	n/a	n/a	n/a	n/a	n/a	n/a	n/a	n/a	7	n/a	n/a
46.4	0.8	n/a	n/a	n/a	n/a	n/a	n/a	n/a	n/a	n/a	n/a	n/a	n/a	n/a	n/a	n/a	n/a	n/a	n/a	n/a	n/a	n/a	n/a	n/a	n/a	n/a	n/a	n/a	n/a	n/a	n/a	n/a	n/a	n/a	n/a	n/a	n/a	n/a	n/a	n/a	n/a	n/a	n/a	n/a	n/a	n/a	n/a	n/a	n/a	7	n/a	n/a
48	0.8	n/a	n/a	n/a	n/a	n/a	n/a	n/a	n/a	n/a	n/a	n/a	n/a	n/a	n/a	n/a	n/a	n/a	n/a	n/a	n/a	n/a	n/a	n/a	n/a	n/a	n/a	n/a	n/a	n/a	n/a	n/a	n/a	n/a	n/a	n/a	n/a	n/a	n/a	n/a	n/a	n/a	n/a	n/a	n/a	n/a	n/a	n/a	n/a	7	n/a	n/a
49.6	0.8	n/a	n/a	n/a	n/a	n/a	n/a	n/a	n/a	n/a	n/a	n/a	n/a	n/a	n/a	n/a	n/a	n/a	n/a	n/a	n/a	n/a	n/a	n/a	n/a	n/a	n/a	n/a	n/a	n/a	n/a	n/a	n/a	n/a	n/a	n/a	n/a	n/a	n/a	n/a	n/a	n/a	n/a	n/a	n/a	n/a	n/a	n/a	n/a	5	n/a	n/a
51.2	0.8	n/a	n/a	n/a	n/a	n/a	n/a	n/a	n/a	n/a	n/a	n/a	n/a	n/a	n/a	n/a	n/a	n/a	n/a	n/a	n/a	n/a	n/a	n/a	n/a	n/a	n/a	n/a	n/a	n/a	n/a	n/a	n/a	n/a	n/a	n/a	n/a	n/a	n/a	n/a	n/a	n/a	n/a	n/a	n/a	n/a	n/a	n/a	n/a	5	n/a	n/a
52.8	0.8	n/a	n/a	n/a	n/a	n/a	n/a	n/a	n/a	n/a	n/a	n/a	n/a	n/a	n/a	n/a	n/a	n/a	n/a	n/a	n/a	n/a	n/a	n/a	n/a	n/a	n/a	n/a	n/a	n/a	n/a	n/a	n/a	n/a	n/a	n/a	n/a	n/a	n/a	n/a	n/a	n/a	n/a	n/a	n/a	n/a	n/a	n/a	n/a	7	n/a	n/a
54.4	0.8	n/a	n/a	n/a	n/a	n/a	n/a	n/a	n/a	n/a	n/a	n/a	n/a	n/a	n/a	n/a	n/a	n/a	n/a	n/a	n/a	n/a	n/a	n/a	n/a	n/a	n/a	n/a	n/a	n/a	n/a	n/a	n/a	n/a	n/a	n/a	n/a	n/a	n/a	n/a	n/a	n/a	n/a	n/a	n/a	n/a	n/a	n/a	n/a	5	n/a	n/a
56	0.8	n/a	n/a	n/a	n/a	n/a	n/a	n/a	n/a	n/a	n/a	n/a	n/a	n/a	n/a	n/a	n/a	n/a	n/a	n/a	n/a	n/a	n/a	n/a	n/a	n/a	n/a	n/a	n/a	n/a	n/a	n/a	n/a	n/a	n/a	n/a	n/a	n/a	n/a	n/a	n/a	n/a	n/a	n/a	n/a	n/a	n/a	n/a	n/a	5	n/a	n/a
57.6	0.8	n/a	n/a	n/a	n/a	n/a	n/a	n/a	n/a	n/a	n/a	n/a	n/a	n/a	n/a	n/a	n/a	n/a	n/a	n/a	n/a	n/a	n/a	n/a	n/a	n/a	n/a	n/a	n/a	n/a	n/a	n/a	n/a	n/a	n/a	n/a	n/a	n/a	n/a	n/a	n/a	n/a	n/a	n/a	n/a	n/a	n/a	n/a	n/a	5	n/a	n/a
59.2	0.8	n/a	n/a	n/a	n/a	n/a	n/a	n/a	n/a	n/a	n/a	n/a	n/a	n/a	n/a	n/a	n/a	n/a	n/a	n/a	n/a	n/a	n/a	n/a	n/a	n/a	n/a	n/a	n/a	n/a	n/a	n/a	n/a	n/a	n/a	n/a	n/a	n/a	n/a	n/a	n/a	n/a	n/a	n/a	n/a	n/a	n/a	n/a	n/a	7	n/a	n/a
60.8	0.8	n/a	n/a	n/a	n/a	n/a	n/a	n/a	n/a	n/a	n/a	n/a	n/a	n/a	n/a	n/a	n/a	n/a	n/a	n/a	n/a	n/a	n/a	n/a	n/a	n/a	n/a	n/a	n/a	n/a	n/a	n/a	n/a	n/a	n/a	n/a	n/a	n/a	n/a	n/a	n/a	n/a	n/a	n/a	n/a	n/a	n/a	n/a	n/a	7	n/a	n/a
62.4	0.8	n/a	n/a	n/a	n/a	n/a	n/a	n/a	n/a	n/a	n/a	n/a	n/a	n/a	n/a	n/a	n/a	n/a	n/a	n/a	n/a	n/a	n/a	n/a	n/a	n/a	n/a	n/a	n/a	n/a	n/a	n/a	n/a	n/a	n/a	n/a	n/a	n/a	n/a	n/a	n/a	n/a	n/a	n/a	n/a	n/a	n/a	n/a	n/a	7	n/a	n/a
64	0.8	n/a	n/a	n/a	n/a	n/a	n/a	n/a	n/a	n/a	n/a	n/a	n/a	n/a	n/a	n/a	n/a	n/a	n/a	n/a	n/a	n/a	n/a	n/a	n/a	n/a	n/a	n/a	n/a	n/a	n/a	n/a	n/a	n/a	n/a	n/a	n/a	n/a	n/a	n/a	n/a	n/a	n/a	n/a	n/a	n/a	n/a	n/a	n/a	5	n/a	n/a
65.6	0.8	n/a	n/a	n/a	n/a	n/a	n/a	n/a	n/a	n/a	n/a	n/a	n/a	n/a	n/a	n/a	n/a	n/a	n/a	n/a	n/a	n/a	n/a	n/a	n/a	n/a	n/a	n/a	n/a	n/a	n/a	n/a	n/a	n/a	n/a	n/a	n/a	n/a	n/a	n/a	n/a	n/a	n/a	n/a	n/a	n/a	n/a	n/a	n/a	7	n/a	n/a
67.2	0.8	n/a	n/a	n/a	n/a	n/a	n/a	n/a	n/a	n/a	n/a	n/a	n/a	n/a	n/a	n/a	n/a	n/a	n/a	n/a	n/a	n/a	n/a	n/a	n/a	n/a	n/a	n/a	n/a	n/a	n/a	n/a	n/a	n/a	n/a	n/a	n/a	n/a	n/a	n/a	n/a	n/a	n/a	n/a	n/a	n/a	n/a	n/a	n/a	5	n/a	n/a
68.8	0.8	n/a	n/a	n/a	n/a	n/a	n/a	n/a	n/a	n/a	n/a	n/a	n/a	n/a	n/a	n/a	n/a	n/a	n/a	n/a	n/a	n/a	n/a	n/a	n/a	n/a	n/a	n/a	n/a	n/a	n/a	n/a	n/a	n/a	n/a	n/a	n/a	n/a	n/a	n/a	n/a	n/a	n/a	n/a	n/a	n/a	n/a	n/a	n/a	7	n/a	n/a
70.4	0.8	n/a	n/a	n/a	n/a	n/a	n/a	n/a	n/a	n/a	n/a	n/a	n/a	n/a	n/a	n/a	n/a	n/a	n/a	n/a	n/a	n/a	n/a	n/a	n/a	n/a	n/a	n/a	n/a	n/a	n/a	n/a	n/a	n/a	n/a	n/a	n/a	n/a	n/a	n/a	n/a	n/a	n/a	n/a	n/a	n/a	n/a	n/a	n/a	5	n/a	n/a
72	0.8	n/a	n/a	n/a	n/a	n/a	n/a	n/a	n/a	n/a	n/a	n/a	n/a	n/a	n/a	n/a	n/a	n/a	n/a	n/a	n/a	n/a	n/a	n/a	n/a	n/a	n/a	n/a	n/a	n/a	n/a	n/a	n/a	n/a	n/a	n/a	n/a	n/a	n/a	n/a	n/a	n/a	n/a	n/a	n/a	n/a	n/a	n/a	n/a	7	n/a	n/a
73.6	0.8	n/a	n/a	n/a	n/a	n/a	n/a	n/a	n/a	n/a	n/a	n/a	n/a	n/a	n/a	n/a	n/a	n/a	n/a	n/a	n/a	n/a	n/a	n/a	n/a	n/a	n/a	n/a	n/a	n/a	n/a	n/a	n/a	n/a	n/a	n/a	n/a	n/a	n/a	n/a	n/a	n/a	n/a	n/a	n/a	n/a	n/a	n/a	n/a	7	n/a	n/a
75.2	0.8	n/a	n/a	n/a	n/a	n/a	n/a	n/a	n/a	n/a	n/a	n/a	n/a	n/a	n/a	n/a	n/a	n/a	n/a	n/a	n/a	n/a	n/a	n/a	n/a	n/a	n/a	n/a	n/a	n/a	n/a	n/a	n/a	n/a	n/a	n/a	n/a	n/a	n/a	n/a	n/a	n/a	n/a	n/a	n/a	n/a	n/a	n/a	n/a	5	n/a	n/a
76.8	0.8	n/a	n/a	n/a	n/a	n/a	n/a	n/a	n/a	n/a	n/a	n/a	n/a	n/a	n/a	n/a	n/a	n/a	n/a	n/a	n/a	n/a	n/a	n/a	n/a	n/a	n/a	n/a	n/a	n/a	n/a	n/a	n/a	n/a	n/a	n/a	n/a	n/a	n/a	n/a	n/a	n/a	n/a	n/a	n/a	n/a	n/a	n/a	n/a	7	n/a	n/a
78.4	0.8	n/a	n/a	n/a	n/a	n/a	n/a	n/a	n/a	n/a	n/a	n/a	n/a	n/a	n/a	n/a	n/a	n/a	n/a	n/a	n/a	n/a	n/a	n/a	n/a	n/a	n/a	n/a	n/a	n/a	n/a	n/a	n/a	n/a	n/a	n/a	n/a	n/a	n/a	n/a	n/a	n/a	n/a	n/a	n/a	n/a	n/a	n/a	n/a	7	n/a	n/a
80	0.8	n/a	n/a	n/a	n/a	n/a	n/a	n/a	n/a	n/a	n/a	n/a	n/a	n/a	n/a	n/a	n/a	n/a	n/a	n/a	n/a	n/a	n/a	n/a	n/a	n/a	n/a	n/a	n/a	n/a	n/a	n/a	n/a	n/a	n/a	n/a	n/a	n/a	n/a	n/a	n/a	n/a	n/a	n/a	n/a	n/a	n/a	n/a	n/a	5	n/a	n/a
81.6	0.8	n/a	n/a	n/a	n/a	n/a	n/a	n/a	n/a	n/a	n/a	n/a	n/a	n/a	n/a	n/a	n/a	n/a	n/a	n/a	n/a	n/a	n/a	n/a	n/a	n/a	n/a	n/a	n/a	n/a	n/a	n/a	n/a	n/a	n/a	n/a	n/a	n/a	n/a	n/a	n/a	n/a	n/a	n/a	n/a	n/a	n/a	n/a	n/a	5	n/a	n/a
83.2	0.8	n/a	n/a	n/a	n/a	n/a	n/a	n/a	n/a	n/a	n/a	n/a	n/a	n/a	n/a	n/a	n/a	n/a	n/a	n/a	n/a	n/a	n/a	n/a	n/a	n/a	n/a	n/a	n/a	n/a	n/a	n/a	n/a	n/a	n/a	n/a	n/a	n/a	n/a	n/a	n/a	n/a	n/a	n/a	n/a	n/a	n/a	n/a	n/a	5	n/a	n/a
84.8	0.8	n/a	n/a	n/a	n/a	n/a	n/a	n/a	n/a	n/a	n/a	n/a	n/a	n/a	n/a	n/a	n/a	n/a	n/a	n/a	n/a	n/a	n/a	n/a	n/a	n/a	n/a	n/a	n/a	n/a	n/a	n/a	n/a	n/a	n/a	n/a	n/a	n/a	n/a	n/a	n/a	n/a	n/a	n/a	n/a	n/a	n/a	n/a	n/a	7	n/a	n/a
86.4	0.8	n/a	n/a	n/a	n/a	n/a	n/a	n/a	n/a	n/a	n/a	n/a	n/a	n/a	n/a	n/a	n/a	n/a	n/a	n/a	n/a	n/a	n/a	n/a	n/a	n/a	n/a	n/a	n/a	n/a	n/a	n/a	n/a	n/a	n/a	n/a	n/a	n/a	n/a	n/a	n/a	n/a	n/a	n/a	n/a	n/a	n/a	n/a	n/a	5	n/a	n/a
88	0.8	n/a	n/a	n/a	n/a	n/a	n/a	n/a	n/a	n/a	n/a	n/a	n/a	n/a	n/a	n/a	n/a	n/a	n/a	n/a	n/a	n/a	n/a	n/a	n/a	n/a	n/a	n/a	n/a	n/a	n/a	n/a	n/a	n/a	n/a	n/a	n/a	n/a	n/a	n/a	n/a	n/a	n/a	n/a	n/a	n/a	n/a	n/a	n/a	7	n/a	n/a
89.6	0.8	n/a	n/a	n/a	n/a	n/a	n/a	n/a	n/a	n/a	n/a	n/a	n/a	n/a	n/a	n/a	n/a	n/a	n/a	n/a	n/a	n/a	n/a	n/a	n/a	n/a	n/a	n/a	n/a	n/a	n/a	n/a	n/a	n/a	n/a	n/a	n/a	n/a	n/a	n/a	n/a	n/a	n/a	n/a	n/a	n/a	n/a	n/a	n/a	5	n/a	n/a
91.2	0.8	n/a	n/a	n/a	n/a	n/a	n/a	n/a	n/a	n/a	n/a	n/a	n/a	n/a	n/a	n/a	n/a	n/a	n/a	n/a	n/a	n/a	n/a	n/a	n/a	n/a	n/a	n/a	n/a	n/a	n/a	n/a	n/a	n/a	n/a	n/a	n/a	n/a	n/a	n/a	n/a	n/a	n/a	n/a	n/a	n/a	n/a	n/a	n/a	5	n/a	n/a
92.8	0.8	n/a	n/a	n/a	n/a	n/a	n/a	n/a	n/a	n/a	n/a	n/a	n/a	n/a	n/a	n/a	n/a	n/a	n/a	n/a	n/a	n/a	n/a	n/a	n/a	n/a	n/a	n/a	n/a	n/a	n/a	n/a	n/a	n/a	n/a	n/a	n/a	n/a	n/a	n/a	n/a	n/a	n/a	n/a	n/a	n/a	n/a	n/a	n/a	7	n/a	n/a
94.4	0.8	n/a	n/a	n/a	n/a	n/a	n/a	n/a	n/a	n/a	n/a	n/a	n/a	n/a	n/a	n/a	n/a	n/a	n/a	n/a	n/a	n/a	n/a	n/a	n/a	n/a	n/a	n/a	n/a	n/a	n/a	n/a	n/a	n/a	n/a	n/a	n/a	n/a	n/a	n/a	n/a	n/a	n/a	n/a	n/a	n/a	n/a	n/a	n/a	7	n/a	n/a
96	0.8	n/a	n/a	n/a	n/a	n/a	n/a	n/a	n/a	n/a	n/a	n/a	n/a	n/a	n/a	n/a	n/a	n/a	n/a	n/a	n/a	n/a	n/a	n/a	n/a	n/a	n/a	n/a	n/a	n/a	n/a	n/a	n/a	n/a	n/a	n/a	n/a	n/a	n/a	n/a	n/a	n/a	n/a	n/a	n/a	n/a	n/a	n/a	n/a	7	n/a	n/a
97.6	0.8	n/a	n/a	n/a	n/a	n/a	n/a	n/a	n/a	n/a	n/a	n/a	n/a	n/a	n/a	n/a	n/a	n/a	n/a	n/a	n/a	n/a	n/a	n/a	n/a	n/a	n/a	n/a	n/a	n/a	n/a	n/a	n/a	n/a	n/a	n/a	n/a	n/a	n/a	n/a	n/a	n/a	n/a	n/a	n/a	n/a	n/a	n/a	n/a	5	n/a	n/a
99.2	0.8	n/a	n/a	n/a	n/a	n/a	n/a	n/a	n/a	n/a	n/a	n/a	n/a	n/a	n/a	n/a	n/a	n/a	n/a	n/a	n/a	n/a	n/a	n/a	n/a	n/a	n/a	n/a	n/a	n/a	n/a	n/a	n/a	n/a	n/a	n/a	n/a	n/a	n/a	n/a	n/a	n/a	n/a	n/a	n/a	n/a	n/a	n/a	n/a	5	n/a	n/a
100.8	0.8	n/a	n/a	n/a	n/a	n/a	n/a	n/a	n/a	n/a	n/a	n/a	n/a	n/a	n/a	n/a	n/a	n/a	n/a	n/a	n/a	n/a	n/a	n/a	n/a	n/a	n/a	n/a	n/a	n/a	n/a	n/a	n/a	n/a	n/a	n/a	n/a	n/a	n/a	n/a	n/a	n/a	n/a	n/a	n/a	n/a	n/a	n/a	n/a	5	n/a	n/a
102.4	0.8	n/a	n/a	n/a	n/a	n/a	n/a	n/a	n/a	n/a	n/a	n/a	n/a	n/a	n/a	n/a	n/a	n/a	n/a	n/a	n/a	n/a	n/a	n/a	n/a	n/a	n/a	n/a	n/a	n/a	n/a	n/a	n/a	n/a	n/a	n/a	n/a	n/a	n/a	n/a	n/a	n/a	n/a	n/a	n/a	n/a	n/a	n/a	n/a	7	n/a	n/a
104	0.8	n/a	n/a	n/a	n/a	n/a	n/a	n/a	n/a	n/a	n/a	n/a	n/a	n/a	n/a	n/a	n/a	n/a	n/a	n/a	n/a	n/a	n/a	n/a	n/a	n/a	n/a	n/a	n/a	n/a	n/a	n/a	n/a	n/a	n/a	n/a	n/a	n/a	n/a	n/a	n/a	n/a	n/a	n/a	n/a	n/a	n/a	n/a	n/a	7	n/a	n/a
105.6	0.8	n/a	n/a	n/a	n/a	n/a	n/a	n/a	n/a	n/a	n/a	n/a	n/a	n/a	n/a	n/a	n/a	n/a	n/a	n/a	n/a	n/a	n/a	n/a	n/a	n/a	n/a	n/a	n/a	n/a	n/a	n/a	n/a	n/a	n/a	n/a	n/a	n/a	n/a	n/a	n/a	n/a	n/a	n/a	n/a	n/a	n/a	n/a	n/a	5	n/a	n/a
107.2	0.8	n/a	n/a	n/a	n/a	n/a	n/a	n/a	n/a	n/a	n/a	n/a	n/a	n/a	n/a	n/a	n/a	n/a	n/a	n/a	n/a	n/a	n/a	n/a	n/a	n/a	n/a	n/a	n/a	n/a	n/a	n/a	n/a	n/a	n/a	n/a	n/a	n/a	n/a	n/a	n/a	n/a	n/a	n/a	n/a	n/a	n/a	n/a	n/a	5	n/a	n/a
108.8	0.8	n/a	n/a	n/a	n/a	n/a	n/a	n/a	n/a	n/a	n/a	n/a	n/a	n/a	n/a	n/a	n/a	n/a	n/a	n/a	n/a	n/a	n/a	n/a	n/a	n/a	n/a	n/a	n/a	n/a	n/a	n/a	n/a	n/a	n/a	n/a	n/a	n/a	n/a	n/a	n/a	n/a	n/a	n/a	n/a	n/a	n/a	n/a	n/a	7	n/a	n/a
110.4	0.8	n/a	n/a	n/a	n/a	n/a	n/a	n/a	n/a	n/a	n/a	n/a	n/a	n/a	n/a	n/a	n/a	n/a	n/a	n/a	n/a	n/a	n/a	n/a	n/a	n/a	n/a	n/a	n/a	n/a	n/a	n/a	n/a	n/a	n/a	n/a	n/a	n/a	n/a	n/a	n/a	n/a	n/a	n/a	n/a	n/a	n/a	n/a	n/a	7	n/a	n/a
112	0.8	n/a	n/a	n/a	n/a	n/a	n/a	n/a	n/a	n/a	n/a	n/a	n/a	n/a	n/a	n/a	n/a	n/a	n/a	n/a	n/a	n/a	n/a	n/a	n/a	n/a	n/a	n/a	n/a	n/a	n/a	n/a	n/a	n/a	n/a	n/a	n/a	n/a	n/a	n/a	n/a	n/a	n/a	n/a	n/a	n/a	n/a	n/a	n/a	5	n/a	n/a
113.6	0.8	n/a	n/a	n/a	n/a	n/a	n/a	n/a	n/a	n/a	n/a	n/a	n/a	n/a	n/a	n/a	n/a	n/a	n/a	n/a	n/a	n/a	n/a	n/a	n/a	n/a	n/a	n/a	n/a	n/a	n/a	n/a	n/a	n/a	n/a	n/a	n/a	n/a	n/a	n/a	n/a	n/a	n/a	n/a	n/a	n/a	n/a	n/a	n/a	5	n/a	n/a
115.2	0.8	n/a	n/a	n/a	n/a	n/a	n/a	n/a	n/a	n/a	n/a	n/a	n/a	n/a	n/a	n/a	n/a	n/a	n/a	n/a	n/a	n/a	n/a	n/a	n/a	n/a	n/a	n/a	n/a	n/a	n/a	n/a	n/a	n/a	n/a	n/a	n/a	n/a	n/a	n/a	n/a	n/a	n/a	n/a	n/a	n/a	n/a	n/a	n/a	7	n/a	n/a
116.8	0.8	n/a	n/a	n/a	n/a	n/a	n/a	n/a	n/a	n/a	n/a	n/a	n/a	n/a	n/a	n/a	n/a	n/a	n/a	n/a	n/a	n/a	n/a	n/a	n/a	n/a	n/a	n/a	n/a	n/a	n/a	n/a	n/a	n/a	n/a	n/a	n/a	n/a	n/a	n/a	n/a	n/a	n/a	n/a	n/a	n/a	n/a	n/a	n/a	5	n/a	n/a
118.4	0.8	n/a	n/a	n/a	n/a	n/a	n/a	n/a	n/a	n/a	n/a	n/a	n/a	n/a	n/a	n/a	n/a	n/a	n/a	n/a	n/a	n/a	n/a	n/a	n/a	n/a	n/a	n/a	n/a	n/a	n/a	n/a	n/a	n/a	n/a	n/a	n/a	n/a	n/a	n/a	n/a	n/a	n/a	n/a	n/a	n/a	n/a	n/a	n/a	5	n/a	n/a
120	0.8	n/a	n/a	n/a	n/a	n/a	n/a	n/a	n/a	n/a	n/a	n/a	n/a	n/a	n/a	n/a	n/a	n/a	n/a	n/a	n/a	n/a	n/a	n/a	n/a	n/a	n/a	n/a	n/a	n/a	n/a	n/a	n/a	n/a	n/a	n/a	n/a	n/a	n/a	n/a	n/a	n/a	n/a	n/a	n/a	n/a	n/a	n/a	n/a	5	n/a	n/a
121.6	0.8	n/a	n/a	n/a	n/a	n/a	n/a	n/a	n/a	n/a	n/a	n/a	n/a	n/a	n/a	n/a	n/a	n/a	n/a	n/a	n/a	n/a	n/a	n/a	n/a	n/a	n/a	n/a	n/a	n/a	n/a	n/a	n/a	n/a	n/a	n/a	n/a	n/a	n/a	n/a	n/a	n/a	n/a	n/a	n/a	n/a	n/a	n/a	n/a	7	n/a	n/a
123.2	0.8	n/a	n/a	n/a	n/a	n/a	n/a	n/a	n/a	n/a	n/a	n/a	n/a	n/a	n/a	n/a	n/a	n/a	n/a	n/a	n/a	n/a	n/a	n/a	n/a	n/a	n/a	n/a	n/a	n/a	n/a	n/a	n/a	n/a	n/a	n/a	n/a	n/a	n/a	n/a	n/a	n/a	n/a	n/a	n/a	n/a	n/a	n/a	n/a	7	n/a	n/a
124.8	0.8	n/a	n/a	n/a	n/a	n/a	n/a	n/a	n/a	n/a	n/a	n/a	n/a	n/a	n/a	n/a	n/a	n/a	n/a	n/a	n/a	n/a	n/a	n/a	n/a	n/a	n/a	n/a	n/a	n/a	n/a	n/a	n/a	n/a	n/a	n/a	n/a	n/a	n/a	n/a	n/a	n/a	n/a	n/a	n/a	n/a	n/a	n/a	n/a	7	n/a	n/a
126.4	0.8	n/a	n/a	n/a	n/a	n/a	n/a	n/a	n/a	n/a	n/a	n/a	n/a	n/a	n/a	n/a	n/a	n/a	n/a	n/a	n/a	n/a	n/a	n/a	n/a	n/a	n/a	n/a	n/a	n/a	n/a	n/a	n/a	n/a	n/a	n/a	n/a	n/a	n/a	n/a	n/a	n/a	n/a	n/a	n/a	n/a	n/a	n/a	n/a	5	n/a	n/a
128	0.8	n/a	n/a	n/a	n/a	n/a	n/a	n/a	n/a	n/a	n/a	n/a	n/a	n/a	n/a	n/a	n/a	n/a	n/a	n/a	n/a	n/a	n/a	n/a	n/a	n/a	n/a	n/a	n/a	n/a	n/a	n/a	n/a	n/a	n/a	n/a	n/a	n/a	n/a	n/a	n/a	n/a	n/a	n/a	n/a	n/a	n/a	n/a	n/a	7	n/a	n/a
129.6	0.8	n/a	n/a	n/a	n/a	n/a	n/a	n/a	n/a	n/a	n/a	n/a	n/a	n/a	n/a	n/a	n/a	n/a	n/a	n/a	n/a	n/a	n/a	n/a	n/a	n/a	n/a	n/a	n/a	n/a	n/a	n/a	n/a	n/a	n/a	n/a	n/a	n/a	n/a	n/a	n/a	n/a	n/a	n/a	n/a	n/a	n/a	n/a	n/a	5	n/a	n/a
131.2	0.8	n/a	n/a	n/a	n/a	n/a	n/a	n/a	n/a	n/a	n/a	n/a	n/a	n/a	n/a	n/a	n/a	n/a	n/a	n/a	n/a	n/a	n/a	n/a	n/a	n/a	n/a	n/a	n/a	n/a	n/a	n/a	n/a	n/a	n/a	n/a	n/a	n/a	n/a	n/a	n/a	n/a	n/a	n/a	n/a	n/a	n/a	n/a	n/a	7	n/a	n/a
132.8	0.8	n/a	n/a	n/a	n/a	n/a	n/a	n/a	n/a	n/a	n/a	n/a	n/a	n/a	n/a	n/a	n/a	n/a	n/a	n/a	n/a	n/a	n/a	n/a	n/a	n/a	n/a	n/a	n/a	n/a	n/a	n/a	n/a	n/a	n/a	n/a	n/a	n/a	n/a	n/a	n/a	n/a	n/a	n/a	n/a	n/a	n/a	n/a	n/a	5	n/a	n/a
134.4	0.8	n/a	n/a	n/a	n/a	n/a	n/a	n/a	n/a	n/a	n/a	n/a	n/a	n/a	n/a	n/a	n/a	n/a	n/a	n/a	n/a	n/a	n/a	n/a	n/a	n/a	n/a	n/a	n/a	n/a	n/a	n/a	n/a	n/a	n/a	n/a	n/a	n/a	n/a	n/a	n/a	n/a	n/a	n/a	n/a	n/a	n/a	n/a	n/a	5	n/a	n/a
136	0.8	n/a	n/a	n/a	n/a	n/a	n/a	n/a	n/a	n/a	n/a	n/a	n/a	n/a	n/a	n/a	n/a	n/a	n/a	n/a	n/a	n/a	n/a	n/a	n/a	n/a	n/a	n/a	n/a	n/a	n/a	n/a	n/a	n/a	n/a	n/a	n/a	n/a	n/a	n/a	n/a	n/a	n/a	n/a	n/a	n/a	n/a	n/a	n/a	5	n/a	n/a
137.6	0.8	n/a	n/a	n/a	n/a	n/a	n/a	n/a	n/a	n/a	n/a	n/a	n/a	n/a	n/a	n/a	n/a	n/a	n/a	n/a	n/a	n/a	n/a	n/a	n/a	n/a	n/a	n/a	n/a	n/a	n/a	n/a	n/a	n/a	n/a	n/a	n/a	n/a	n/a	n/a	n/a	n/a	n/a	n/a	n/a	n/a	n/a	n/a	n/a	7	n/a	n/a
139.2	0.8	n/a	n/a	n/a	n/a	n/a	n/a	n/a	n/a	n/a	n/a	n/a	n/a	n/a	n/a	n/a	n/a	n/a	n/a	n/a	n/a	n/a	n/a	n/a	n/a	n/a	n/a	n/a	n/a	n/a	n/a	n/a	n/a	n/a	n/a	n/a	n/a	n/a	n/a	n/a	n/a	n/a	n/a	n/a	n/a	n/a	n/a	n/a	n/a	7	n/a	n/a
140.8	0.8	n/a	n/a	n/a	n/a	n/a	n/a	n/a	n/a	n/a	n/a	n/a	n/a	n/a	n/a	n/a	n/a	n/a	n/a	n/a	n/a	n/a	n/a	n/a	n/a	n/a	n/a	n/a	n/a	n/a	n/a	n/a	n/a	n/a	n/a	n/a	n/a	n/a	n/a	n/a	n/a	n/a	n/a	n/a	n/a	n/a	n/a	n/a	n/a	5	n/a	n/a
142.4	0.8	n/a	n/a	n/a	n/a	n/a	n/a	n/a	n/a	n/a	n/a	n/a	n/a	n/a	n/a	n/a	n/a	n/a	n/a	n/a	n/a	n/a	n/a	n/a	n/a	n/a	n/a	n/a	n/a	n/a	n/a	n/a	n/a	n/a	n/a	n/a	n/a	n/a	n/a	n/a	n/a	n/a	n/a	n/a	n/a	n/a	n/a	n/a	n/a	7	n/a	n/a
144	0.8	n/a	n/a	n/a	n/a	n/a	n/a	n/a	n/a	n/a	n/a	n/a	n/a	n/a	n/a	n/a	n/a	n/a	n/a	n/a	n/a	n/a	n/a	n/a	n/a	n/a	n/a	n/a	n/a	n/a	n/a	n/a	n/a	n/a	n/a	n/a	n/a	n/a	n/a	n/a	n/a	n/a	n/a	n/a	n/a	n/a	n/a	n/a	n/a	5	n/a	n/a
145.6	0.8	n/a	n/a	n/a	n/a	n/a	n/a	n/a	n/a	n/a	n/a	n/a	n/a	n/a	n/a	n/a	n/a	n/a	n/a	n/a	n/a	n/a	n/a	n/a	n/a	n/a	n/a	n/a	n/a	n/a	n/a	n/a	n/a	n/a	n/a	n/a	n/a	n/a	n/a	n/a	n/a	n/a	n/a	n/a	n/a	n/a	n/a	n/a	n/a	5	n/a	n/a
147.2	0.8	n/a	n/a	n/a	n/a	n/a	n/a	n/a	n/a	n/a	n/a	n/a	n/a	n/a	n/a	n/a	n/a	n/a	n/a	n/a	n/a	n/a	n/a	n/a	n/a	n/a	n/a	n/a	n/a	n/a	n/a	n/a	n/a	n/a	n/a	n/a	n/a	n/a	n/a	n/a	n/a	n/a	n/a	n/a	n/a	n/a	n/a	n/a	n/a	7	n/a	n/a
148.8	0.8	n/a	n/a	n/a	n/a	n/a	n/a	n/a	n/a	n/a	n/a	n/a	n/a	n/a	n/a	n/a	n/a	n/a	n/a	n/a	n/a	n/a	n/a	n/a	n/a	n/a	n/a	n/a	n/a	n/a	n/a	n/a	n/a	n/a	n/a	n/a	n/a	n/a	n/a	n/a	n/a	n/a	n/a	n/a	n/a	n/a	n/a	n/a	n/a	7	n/a	n/a
150.4	0.8	n/a	n/a	n/a	n/a	n/a	n/a	n/a	n/a	n/a	n/a	n/a	n/a	n/a	n/a	n/a	n/a	n/a	n/a	n/a	n/a	n/a	n/a	n/a	n/a	n/a	n/a	n/a	n/a	n/a	n/a	n/a	n/a	n/a	n/a	n/a	n/a	n/a	n/a	n/a	n/a	n/a	n/a	n/a	n/a	n/a	n/a	n/a	n/a	7	n/a	n/a
152	0.8	n/a	n/a	n/a	n/a	n/a	n/a	n/a	n/a	n/a	n/a	n/a	n/a	n/a	n/a	n/a	n/a	n/a	n/a	n/a	n/a	n/a	n/a	n/a	n/a	n/a	n/a	n/a	n/a	n/a	n/a	n/a	n/a	n/a	n/a	n/a	n/a	n/a	n/a	n/a	n/a	n/a	n/a	n/a	n/a	n/a	n/a	n/a	n/a	5	n/a	n/a
153.6	0.8	n/a	n/a	n/a	n/a	n/a	n/a	n/a	n/a	n/a	n/a	n/a	n/a	n/a	n/a	n/a	n/a	n/a	n/a	n/a	n/a	n/a	n/a	n/a	n/a	n/a	n/a	n/a	n/a	n/a	n/a	n/a	n/a	n/a	n/a	n/a	n/a	n/a	n/a	n/a	n/a	n/a	n/a	n/a	n/a	n/a	n/a	n/a	n/a	7	n/a	n/a
155.2	0.8	n/a	n/a	n/a	n/a	n/a	n/a	n/a	n/a	n/a	n/a	n/a	n/a	n/a	n/a	n/a	n/a	n/a	n/a	n/a	n/a	n/a	n/a	n/a	n/a	n/a	n/a	n/a	n/a	n/a	n/a	n/a	n/a	n/a	n/a	n/a	n/a	n/a	n/a	n/a	n/a	n/a	n/a	n/a	n/a	n/a	n/a	n/a	n/a	5	n/a	n/a
156.8	0.8	n/a	n/a	n/a	n/a	n/a	n/a	n/a	n/a	n/a	n/a	n/a	n/a	n/a	n/a	n/a	n/a	n/a	n/a	n/a	n/a	n/a	n/a	n/a	n/a	n/a	n/a	n/a	n/a	n/a	n/a	n/a	n/a	n/a	n/a	n/a	n/a	n/a	n/a	n/a	n/a	n/a	n/a	n/a	n/a	n/a	n/a	n/a	n/a	5	n/a	n/a
158.4	0.8	n/a	n/a	n/a	n/a	n/a	n/a	n/a	n/a	n/a	n/a	n/a	n/a	n/a	n/a	n/a	n/a	n/a	n/a	n/a	n/a	n/a	n/a	n/a	n/a	n/a	n/a	n/a	n/a	n/a	n/a	n/a	n/a	n/a	n/a	n/a	n/a	n/a	n/a	n/a	n/a	n/a	n/a	n/a	n/a	n/a	n/a	n/a	n/a	5	n/a	n/a
160	0.8	n/a	n/a	n/a	n/a	n/a	n/a	n/a	n/a	n/a	n/a	n/a	n/a	n/a	n/a	n/a	n/a	n/a	n/a	n/a	n/a	n/a	n/a	n/a	n/a	n/a	n/a	n/a	n/a	n/a	n/a	n/a	n/a	n/a	n/a	n/a	n/a	n/a	n/a	n/a	n/a	n/a	n/a	n/a	n/a	n/a	n/a	n/a	n/a	7	n/a	n/a
161.6	0.8	n/a	n/a	n/a	n/a	n/a	n/a	n/a	n/a	n/a	n/a	n/a	n/a	n/a	n/a	n/a	n/a	n/a	n/a	n/a	n/a	n/a	n/a	n/a	n/a	n/a	n/a	n/a	n/a	n/a	n/a	n/a	n/a	n/a	n/a	n/a	n/a	n/a	n/a	n/a	n/a	n/a	n/a	n/a	n/a	n/a	n/a	n/a	n/a	5	n/a	n/a
163.2	0.8	n/a	n/a	n/a	n/a	n/a	n/a	n/a	n/a	n/a	n/a	n/a	n/a	n/a	n/a	n/a	n/a	n/a	n/a	n/a	n/a	n/a	n/a	n/a	n/a	n/a	n/a	n/a	n/a	n/a	n/a	n/a	n/a	n/a	n/a	n/a	n/a	n/a	n/a	n/a	n/a	n/a	n/a	n/a	n/a	n/a	n/a	n/a	n/a	7	n/a	n/a
164.8	0.8	n/a	n/a	n/a	n/a	n/a	n/a	n/a	n/a	n/a	n/a	n/a	n/a	n/a	n/a	n/a	n/a	n/a	n/a	n/a	n/a	n/a	n/a	n/a	n/a	n/a	n/a	n/a	n/a	n/a	n/a	n/a	n/a	n/a	n/a	n/a	n/a	n/a	n/a	n/a	n/a	n/a	n/a	n/a	n/a	n/a	n/a	n/a	n/a	7	n/a	n/a
166.4	0.8	n/a	n/a	n/a	n/a	n/a	n/a	n/a	n/a	n/a	n/a	n/a	n/a	n/a	n/a	n/a	n/a	n/a	n/a	n/a	n/a	n/a	n/a	n/a	n/a	n/a	n/a	n/a	n/a	n/a	n/a	n/a	n/a	n/a	n/a	n/a	n/a	n/a	n/a	n/a	n/a	n/a	n/a	n/a	n/a	n/a	n/a	n/a	n/a	5	n/a	n/a
168	0.8	n/a	n/a	n/a	n/a	n/a	n/a	n/a	n/a	n/a	n/a	n/a	n/a	n/a	n/a	n/a	n/a	n/a	n/a	n/a	n/a	n/a	n/a	n/a	n/a	n/a	n/a	n/a	n/a	n/a	n/a	n/a	n/a	n/a	n/a	n/a	n/a	n/a	n/a	n/a	n/a	n/a	n/a	n/a	n/a	n/a	n/a	n/a	n/a	5	n/a	n/a
169.6	0.8	n/a	n/a	n/a	n/a	n/a	n/a	n/a	n/a	n/a	n/a	n/a	n/a	n/a	n/a	n/a	n/a	n/a	n/a	n/a	n/a	n/a	n/a	n/a	n/a	n/a	n/a	n/a	n/a	n/a	n/a	n/a	n/a	n/a	n/a	n/a	n/a	n/a	n/a	n/a	n/a	n/a	n/a	n/a	n/a	n/a	n/a	n/a	n/a	5	n/a	n/a
171.2	0.8	n/a	n/a	n/a	n/a	n/a	n/a	n/a	n/a	n/a	n/a	n/a	n/a	n/a	n/a	n/a	n/a	n/a	n/a	n/a	n/a	n/a	n/a	n/a	n/a	n/a	n/a	n/a	n/a	n/a	n/a	n/a	n/a	n/a	n/a	n/a	n/a	n/a	n/a	n/a	n/a	n/a	n/a	n/a	n/a	n/a	n/a	n/a	n/a	7	n/a	n/a
172.8	0.8	n/a	n/a	n/a	n/a	n/a	n/a	n/a	n/a	n/a	n/a	n/a	n/a	n/a	n/a	n/a	n/a	n/a	n/a	n/a	n/a	n/a	n/a	n/a	n/a	n/a	n/a	n/a	n/a	n/a	n/a	n/a	n/a	n/a	n/a	n/a	n/a	n/a	n/a	n/a	n/a	n/a	n/a	n/a	n/a	n/a	n/a	n/a	n/a	5	n/a	n/a
174.4	0.8	n/a	n/a	n/a	n/a	n/a	n/a	n/a	n/a	n/a	n/a	n/a	n/a	n/a	n/a	n/a	n/a	n/a	n/a	n/a	n/a	n/a	n/a	n/a	n/a	n/a	n/a	n/a	n/a	n/a	n/a	n/a	n/a	n/a	n/a	n/a	n/a	n/a	n/a	n/a	n/a	n/a	n/a	n/a	n/a	n/a	n/a	n/a	n/a	5	n/a	n/a
176	0.8	n/a	n/a	n/a	n/a	n/a	n/a	n/a	n/a	n/a	n/a	n/a	n/a	n/a	n/a	n/a	n/a	n/a	n/a	n/a	n/a	n/a	n/a	n/a	n/a	n/a	n/a	n/a	n/a	n/a	n/a	n/a	n/a	n/a	n/a	n/a	n/a	n/a	n/a	n/a	n/a	n/a	n/a	n/a	n/a	n/a	n/a	n/a	n/a	7	n/a	n/a
177.6	0.8	n/a	n/a	n/a	n/a	n/a	n/a	n/a	n/a	n/a	n/a	n/a	n/a	n/a	n/a	n/a	n/a	n/a	n/a	n/a	n/a	n/a	n/a	n/a	n/a	n/a	n/a	n/a	n/a	n/a	n/a	n/a	n/a	n/a	n/a	n/a	n/a	n/a	n/a	n/a	n/a	n/a	n/a	n/a	n/a	n/a	n/a	n/a	n/a	5	n/a	n/a
179.2	0.8	n/a	n/a	n/a	n/a	n/a	n/a	n/a	n/a	n/a	n/a	n/a	n/a	n/a	n/a	n/a	n/a	n/a	n/a	n/a	n/a	n/a	n/a	n/a	n/a	n/a	n/a	n/a	n/a	n/a	n/a	n/a	n/a	n/a	n/a	n/a	n/a	n/a	n/a	n/a	n/a	n/a	n/a	n/a	n/a	n/a	n/a	n/a	n/a	5	n/a	n/a
180.8	0.8	n/a	n/a	n/a	n/a	n/a	n/a	n/a	n/a	n/a	n/a	n/a	n/a	n/a	n/a	n/a	n/a	n/a	n/a	n/a	n/a	n/a	n/a	n/a	n/a	n/a	n/a	n/a	n/a	n/a	n/a	n/a	n/a	n/a	n/a	n/a	n/a	n/a	n/a	n/a	n/a	n/a	n/a	n/a	n/a	n/a	n/a	n/a	n/a	7	n/a	n/a
182.4	0.8	n/a	n/a	n/a	n/a	n/a	n/a	n/a	n/a	n/a	n/a	n/a	n/a	n/a	n/a	n/a	n/a	n/a	n/a	n/a	n/a	n/a	n/a	n/a	n/a	n/a	n/a	n/a	n/a	n/a	n/a	n/a	n/a	n/a	n/a	n/a	n/a	n/a	n/a	n/a	n/a	n/a	n/a	n/a	n/a	n/a	n/a	n/a	n/a	7	n/a	n/a
184	0.8	n/a	n/a	n/a	n/a	n/a	n/a	n/a	n/a	n/a	n/a	n/a	n/a	n/a	n/a	n/a	n/a	n/a	n/a	n/a	n/a	n/a	n/a	n/a	n/a	n/a	n/a	n/a	n/a	n/a	n/a	n/a	n/a	n/a	n/a	n/a	n/a	n/a	n/a	n/a	n/a	n/a	n/a	n/a	n/a	n/a	n/a	n/a	n/a	5	n/a	n/a
185.6	0.8	n/a	n/a	n/a	n/a	n/a	n/a	n/a	n/a	n/a	n/a	n/a	n/a	n/a	n/a	n/a	n/a	n/a	n/a	n/a	n/a	n/a	n/a	n/a	n/a	n/a	n/a	n/a	n/a	n/a	n/a	n/a	n/a	n/a	n/a	n/a	n/a	n/a	n/a	n/a	n/a	n/a	n/a	n/a	n/a	n/a	n/a	n/a	n/a	5	n/a	n/a
187.2	0.8	n/a	n/a	n/a	n/a	n/a	n/a	n/a	n/a	n/a	n/a	n/a	n/a	n/a	n/a	n/a	n/a	n/a	n/a	n/a	n/a	n/a	n/a	n/a	n/a	n/a	n/a	n/a	n/a	n/a	n/a	n/a	n/a	n/a	n/a	n/a	n/a	n/a	n/a	n/a	n/a	n/a	n/a	n/a	n/a	n/a	n/a	n/a	n/a	5	n/a	n/a
188.8	0.8	n/a	n/a	n/a	n/a	n/a	n/a	n/a	n/a	n/a	n/a	n/a	n/a	n/a	n/a	n/a	n/a	n/a	n/a	n/a	n/a	n/a	n/a	n/a	n/a	n/a	n/a	n/a	n/a	n/a	n/a	n/a	n/a	n/a	n/a	n/a	n/a	n/a	n/a	n/a	n/a	n/a	n/a	n/a	n/a	n/a	n/a	n/a	n/a	7	n/a	n/a
190.4	0.8	n/a	n/a	n/a	n/a	n/a	n/a	n/a	n/a	n/a	n/a	n/a	n/a	n/a	n/a	n/a	n/a	n/a	n/a	n/a	n/a	n/a	n/a	n/a	n/a	n/a	n/a	n/a	n/a	n/a	n/a	n/a	n/a	n/a	n/a	n/a	n/a	n/a	n/a	n/a	n/a	n/a	n/a	n/a	n/a	n/a	n/a	n/a	n/a	5	n/a	n/a
192	0.8	n/a	n/a	n/a	n/a	n/a	n/a	n/a	n/a	n/a	n/a	n/a	n/a	n/a	n/a	n/a	n/a	n/a	n/a	n/a	n/a	n/a	n/a	n/a	n/a	n/a	n/a	n/a	n/a	n/a	n/a	n/a	n/a	n/a	n/a	n/a	n/a	n/a	n/a	n/a	n/a	n/a	n/a	n/a	n/a	n/a	n/a	n/a	n/a	7	n/a	n/a
193.6	0.8	n/a	n/a	n/a	n/a	n/a	n/a	n/a	n/a	n/a	n/a	n/a	n/a	n/a	n/a	n/a	n/a	n/a	n/a	n/a	n/a	n/a	n/a	n/a	n/a	n/a	n/a	n/a	n/a	n/a	n/a	n/a	n/a	n/a	n/a	n/a	n/a	n/a	n/a	n/a	n/a	n/a	n/a	n/a	n/a	n/a	n/a	n/a	n/a	5	n/a	n/a
195.2	0.8	n/a	n/a	n/a	n/a	n/a	n/a	n/a	n/a	n/a	n/a	n/a	n/a	n/a	n/a	n/a	n/a	n/a	n/a	n/a	n/a	n/a	n/a	n/a	n/a	n/a	n/a	n/a	n/a	n/a	n/a	n/a	n/a	n/a	n/a	n/a	n/a	n/a	n/a	n/a	n/a	n/a	n/a	n/a	n/a	n/a	n/a	n/a	n/a	7	n/a	n/a
196.8	0.8	n/a	n/a	n/a	n/a	n/a	n/a	n/a	n/a	n/a	n/a	n/a	n/a	n/a	n/a	n/a	n/a	n/a	n/a	n/a	n/a	n/a	n/a	n/a	n/a	n/a	n/a	n/a	n/a	n/a	n/a	n/a	n/a	n/a	n/a	n/a	n/a	n/a	n/a	n/a	n/a	n/a	n/a	n/a	n/a	n/a	n/a	n/a	n/a	5	n/a	n/a
198.4	0.8	n/a	n/a	n/a	n/a	n/a	n/a	n/a	n/a	n/a	n/a	n/a	n/a	n/a	n/a	n/a	n/a	n/a	n/a	n/a	n/a	n/a	n/a	n/a	n/a	n/a	n/a	n/a	n/a	n/a	n/a	n/a	n/a	n/a	n/a	n/a	n/a	n/a	n/a	n/a	n/a	n/a	n/a	n/a	n/a	n/a	n/a	n/a	n/a	5	n/a	n/a
200	0.8	n/a	n/a	n/a	n/a	n/a	n/a	n/a	n/a	n/a	n/a	n/a	n/a	n/a	n/a	n/a	n/a	n/a	n/a	n/a	n/a	n/a	n/a	n/a	n/a	n/a	n/a	n/a	n/a	n/a	n/a	n/a	n/a	n/a	n/a	n/a	n/a	n/a	n/a	n/a	n/a	n/a	n/a	n/a	n/a	n/a	n/a	n/a	n/a	7	n/a	n/a
201.6	0.8	n/a	n/a	n/a	n/a	n/a	n/a	n/a	n/a	n/a	n/a	n/a	n/a	n/a	n/a	n/a	n/a	n/a	n/a	n/a	n/a	n/a	n/a	n/a	n/a	n/a	n/a	n/a	n/a	n/a	n/a	n/a	n/a	n/a	n/a	n/a	n/a	n/a	n/a	n/a	n/a	n/a	n/a	n/a	n/a	n/a	n/a	n/a	n/a	7	n/a	n/a
203.2	0.8	n/a	n/a	n/a	n/a	n/a	n/a	n/a	n/a	n/a	n/a	n/a	n/a	n/a	n/a	n/a	n/a	n/a	n/a	n/a	n/a	n/a	n/a	n/a	n/a	n/a	n/a	n/a	n/a	n/a	n/a	n/a	n/a	n/a	n/a	n/a	n/a	n/a	n/a	n/a	n/a	n/a	n/a	n/a	n/a	n/a	n/a	n/a	n/a	5	n/a	n/a
204.8	0.8	n/a	n/a	n/a	n/a	n/a	n/a	n/a	n/a	n/a	n/a	n/a	n/a	n/a	n/a	n/a	n/a	n/a	n/a	n/a	n/a	n/a	n/a	n/a	n/a	n/a	n/a	n/a	n/a	n/a	n/a	n/a	n/a	n/a	n/a	n/a	n/a	n/a	n/a	n/a	n/a	n/a	n/a	n/a	n/a	n/a	n/a	n/a	n/a	5	n/a	n/a
206.4	0.8	n/a	n/a	n/a	n/a	n/a	n/a	n/a	n/a	n/a	n/a	n/a	n/a	n/a	n/a	n/a	n/a	n/a	n/a	n/a	n/a	n/a	n/a	n/a	n/a	n/a	n/a	n/a	n/a	n/a	n/a	n/a	n/a	n/a	n/a	n/a	n/a	n/a	n/a	n/a	n/a	n/a	n/a	n/a	n/a	n/a	n/a	n/a	n/a	7	n/a	n/a
208	0.8	n/a	n/a	n/a	n/a	n/a	n/a	n/a	n/a	n/a	n/a	n/a	n/a	n/a	n/a	n/a	n/a	n/a	n/a	n/a	n/a	n/a	n/a	n/a	n/a	n/a	n/a	n/a	n/a	n/a	n/a	n/a	n/a	n/a	n/a	n/a	n/a	n/a	n/a	n/a	n/a	n/a	n/a	n/a	n/a	n/a	n/a	n/a	n/a	5	n/a	n/a
209.6	0.8	n/a	n/a	n/a	n/a	n/a	n/a	n/a	n/a	n/a	n/a	n/a	n/a	n/a	n/a	n/a	n/a	n/a	n/a	n/a	n/a	n/a	n/a	n/a	n/a	n/a	n/a	n/a	n/a	n/a	n/a	n/a	n/a	n/a	n/a	n/a	n/a	n/a	n/a	n/a	n/a	n/a	n/a	n/a	n/a	n/a	n/a	n/a	n/a	7	n/a	n/a
211.2	0.8	n/a	n/a	n/a	n/a	n/a	n/a	n/a	n/a	n/a	n/a	n/a	n/a	n/a	n/a	n/a	n/a	n/a	n/a	n/a	n/a	n/a	n/a	n/a	n/a	n/a	n/a	n/a	n/a	n/a	n/a	n/a	n/a	n/a	n/a	n/a	n/a	n/a	n/a	n/a	n/a	n/a	n/a	n/a	n/a	n/a	n/a	n/a	n/a	7	n/a	n/a
212.8	0.8	n/a	n/a	n/a	n/a	n/a	n/a	n/a	n/a	n/a	n/a	n/a	n/a	n/a	n/a	n/a	n/a	n/a	n/a	n/a	n/a	n/a	n/a	n/a	n/a	n/a	n/a	n/a	n/a	n/a	n/a	n/a	n/a	n/a	n/a	n/a	n/a	n/a	n/a	n/a	n/a	n/a	n/a	n/a	n/a	n/a	n/a	n/a	n/a	5	n/a	n/a
214.4	0.8	n/a	n/a	n/a	n/a	n/a	n/a	n/a	n/a	n/a	n/a	n/a	n/a	n/a	n/a	n/a	n/a	n/a	n/a	n/a	n/a	n/a	n/a	n/a	n/a	n/a	n/a	n/a	n/a	n/a	n/a	n/a	n/a	n/a	n/a	n/a	n/a	n/a	n/a	n/a	n/a	n/a	n/a	n/a	n/a	n/a	n/a	n/a	n/a	7	n/a	n/a
216	0.8	n/a	n/a	n/a	n/a	n/a	n/a	n/a	n/a	n/a	n/a	n/a	n/a	n/a	n/a	n/a	n/a	n/a	n/a	n/a	n/a	n/a	n/a	n/a	n/a	n/a	n/a	n/a	n/a	n/a	n/a	n/a	n/a	n/a	n/a	n/a	n/a	n/a	n/a	n/a	n/a	n/a	n/a	n/a	n/a	n/a	n/a	n/a	n/a	7	n/a	n/a
217.6	0.8	n/a	n/a	n/a	n/a	n/a	n/a	n/a	n/a	n/a	n/a	n/a	n/a	n/a	n/a	n/a	n/a	n/a	n/a	n/a	n/a	n/a	n/a	n/a	n/a	n/a	n/a	n/a	n/a	n/a	n/a	n/a	n/a	n/a	n/a	n/a	n/a	n/a	n/a	n/a	n/a	n/a	n/a	n/a	n/a	n/a	n/a	n/a	n/a	7	n/a	n/a
219.2	0.8	n/a	n/a	n/a	n/a	n/a	n/a	n/a	n/a	n/a	n/a	n/a	n/a	n/a	n/a	n/a	n/a	n/a	n/a	n/a	n/a	n/a	n/a	n/a	n/a	n/a	n/a	n/a	n/a	n/a	n/a	n/a	n/a	n/a	n/a	n/a	n/a	n/a	n/a	n/a	n/a	n/a	n/a	n/a	n/a	n/a	n/a	n/a	n/a	5	n/a	n/a
220.8	0.8	n/a	n/a	n/a	n/a	n/a	n/a	n/a	n/a	n/a	n/a	n/a	n/a	n/a	n/a	n/a	n/a	n/a	n/a	n/a	n/a	n/a	n/a	n/a	n/a	n/a	n/a	n/a	n/a	n/a	n/a	n/a	n/a	n/a	n/a	n/a	n/a	n/a	n/a	n/a	n/a	n/a	n/a	n/a	n/a	n/a	n/a	n/a	n/a	5	n/a	n/a
222.4	0.8	n/a	n/a	n/a	n/a	n/a	n/a	n/a	n/a	n/a	n/a	n/a	n/a	n/a	n/a	n/a	n/a	n/a	n/a	n/a	n/a	n/a	n/a	n/a	n/a	n/a	n/a	n/a	n/a	n/a	n/a	n/a	n/a	n/a	n/a	n/a	n/a	n/a	n/a	n/a	n/a	n/a	n/a	n/a	n/a	n/a	n/a	n/a	n/a	7	n/a	n/a
224	0.8	n/a	n/a	n/a	n/a	n/a	n/a	n/a	n/a	n/a	n/a	n/a	n/a	n/a	n/a	n/a	n/a	n/a	n/a	n/a	n/a	n/a	n/a	n/a	n/a	n/a	n/a	n/a	n/a	n/a	n/a	n/a	n/a	n/a	n/a	n/a	n/a	n/a	n/a	n/a	n/a	n/a	n/a	n/a	n/a	n/a	n/a	n/a	n/a	5	n/a	n/a
225.6	0.8	n/a	n/a	n/a	n/a	n/a	n/a	n/a	n/a	n/a	n/a	n/a	n/a	n/a	n/a	n/a	n/a	n/a	n/a	n/a	n/a	n/a	n/a	n/a	n/a	n/a	n/a	n/a	n/a	n/a	n/a	n/a	n/a	n/a	n/a	n/a	n/a	n/a	n/a	n/a	n/a	n/a	n/a	n/a	n/a	n/a	n/a	n/a	n/a	5	n/a	n/a
227.2	0.8	n/a	n/a	n/a	n/a	n/a	n/a	n/a	n/a	n/a	n/a	n/a	n/a	n/a	n/a	n/a	n/a	n/a	n/a	n/a	n/a	n/a	n/a	n/a	n/a	n/a	n/a	n/a	n/a	n/a	n/a	n/a	n/a	n/a	n/a	n/a	n/a	n/a	n/a	n/a	n/a	n/a	n/a	n/a	n/a	n/a	n/a	n/a	n/a	7	n/a	n/a
228.8	0.8	n/a	n/a	n/a	n/a	n/a	n/a	n/a	n/a	n/a	n/a	n/a	n/a	n/a	n/a	n/a	n/a	n/a	n/a	n/a	n/a	n/a	n/a	n/a	n/a	n/a	n/a	n/a	n/a	n/a	n/a	n/a	n/a	n/a	n/a	n/a	n/a	n/a	n/a	n/a	n/a	n/a	n/a	n/a	n/a	n/a	n/a	n/a	n/a	7	n/a	n/a
230.4	0.8	n/a	n/a	n/a	n/a	n/a	n/a	n/a	n/a	n/a	n/a	n/a	n/a	n/a	n/a	n/a	n/a	n/a	n/a	n/a	n/a	n/a	n/a	n/a	n/a	n/a	n/a	n/a	n/a	n/a	n/a	n/a	n/a	n/a	n/a	n/a	n/a	n/a	n/a	n/a	n/a	n/a	n/a	n/a	n/a	n/a	n/a	n/a	n/a	7	n/a	n/a
232	0.8	n/a	n/a	n/a	n/a	n/a	n/a	n/a	n/a	n/a	n/a	n/a	n/a	n/a	n/a	n/a	n/a	n/a	n/a	n/a	n/a	n/a	n/a	n/a	n/a	n/a	n/a	n/a	n/a	n/a	n/a	n/a	n/a	n/a	n/a	n/a	n/a	n/a	n/a	n/a	n/a	n/a	n/a	n/a	n/a	n/a	n/a	n/a	n/a	5	n/a	n/a
233.6	0.8	n/a	n/a	n/a	n/a	n/a	n/a	n/a	n/a	n/a	n/a	n/a	n/a	n/a	n/a	n/a	n/a	n/a	n/a	n/a	n/a	n/a	n/a	n/a	n/a	n/a	n/a	n/a	n/a	n/a	n/a	n/a	n/a	n/a	n/a	n/a	n/a	n/a	n/a	n/a	n/a	n/a	n/a	n/a	n/a	n/a	n/a	n/a	n/a	5	n/a	n/a
235.2	0.8	n/a	n/a	n/a	n/a	n/a	n/a	n/a	n/a	n/a	n/a	n/a	n/a	n/a	n/a	n/a	n/a	n/a	n/a	n/a	n/a	n/a	n/a	n/a	n/a	n/a	n/a	n/a	n/a	n/a	n/a	n/a	n/a	n/a	n/a	n/a	n/a	n/a	n/a	n/a	n/a	n/a	n/a	n/a	n/a	n/a	n/a	n/a	n/a	7	n/a	n/a
236.8	0.8	n/a	n/a	n/a	n/a	n/a	n/a	n/a	n/a	n/a	n/a	n/a	n/a	n/a	n/a	n/a	n/a	n/a	n/a	n/a	n/a	n/a	n/a	n/a	n/a	n/a	n/a	n/a	n/a	n/a	n/a	n/a	n/a	n/a	n/a	n/a	n/a	n/a	n/a	n/a	n/a	n/a	n/a	n/a	n/a	n/a	n/a	n/a	n/a	7	n/a	n/a
238.4	0.8	n/a	n/a	n/a	n/a	n/a	n/a	n/a	n/a	n/a	n/a	n/a	n/a	n/a	n/a	n/a	n/a	n/a	n/a	n/a	n/a	n/a	n/a	n/a	n/a	n/a	n/a	n/a	n/a	n/a	n/a	n/a	n/a	n/a	n/a	n/a	n/a	n/a	n/a	n/a	n/a	n/a	n/a	n/a	n/a	n/a	n/a	n/a	n/a	5	n/a	n/a
240	0.8	n/a	n/a	n/a	n/a	n/a	n/a	n/a	n/a	n/a	n/a	n/a	n/a	n/a	n/a	n/a	n/a	n/a	n/a	n/a	n/a	n/a	n/a	n/a	n/a	n/a	n/a	n/a	n/a	n/a	n/a	n/a	n/a	n/a	n/a	n/a	n/a	n/a	n/a	n/a	n/a	n/a	n/a	n/a	n/a	n/a	n/a	n/a	n/a	7	n/a	n/a
241.6	0.8	n/a	n/a	n/a	n/a	n/a	n/a	n/a	n/a	n/a	n/a	n/a	n/a	n/a	n/a	n/a	n/a	n/a	n/a	n/a	n/a	n/a	n/a	n/a	n/a	n/a	n/a	n/a	n/a	n/a	n/a	n/a	n/a	n/a	n/a	n/a	n/a	n/a	n/a	n/a	n/a	n/a	n/a	n/a	n/a	n/a	n/a	n/a	n/a	5	n/a	n/a
243.2	0.8	n/a	n/a	n/a	n/a	n/a	n/a	n/a	n/a	n/a	n/a	n/a	n/a	n/a	n/a	n/a	n/a	n/a	n/a	n/a	n/a	n/a	n/a	n/a	n/a	n/a	n/a	n/a	n/a	n/a	n/a	n/a	n/a	n/a	n/a	n/a	n/a	n/a	n/a	n/a	n/a	n/a	n/a	n/a	n/a	n/a	n/a	n/a	n/a	7	n/a	n/a
244.8	0.8	n/a	n/a	n/a	n/a	n/a	n/a	n/a	n/a	n/a	n/a	n/a	n/a	n/a	n/a	n/a	n/a	n/a	n/a	n/a	n/a	n/a	n/a	n/a	n/a	n/a	n/a	n/a	n/a	n/a	n/a	n/a	n/a	n/a	n/a	n/a	n/a	n/a	n/a	n/a	n/a	n/a	n/a	n/a	n/a	n/a	n/a	n/a	n/a	7	n/a	n/a
246.4	0.8	n/a	n/a	n/a	n/a	n/a	n/a	n/a	n/a	n/a	n/a	n/a	n/a	n/a	n/a	n/a	n/a	n/a	n/a	n/a	n/a	n/a	n/a	n/a	n/a	n/a	n/a	n/a	n/a	n/a	n/a	n/a	n/a	n/a	n/a	n/a	n/a	n/a	n/a	n/a	n/a	n/a	n/a	n/a	n/a	n/a	n/a	n/a	n/a	5	n/a	n/a
248	0.8	n/a	n/a	n/a	n/a	n/a	n/a	n/a	n/a	n/a	n/a	n/a	n/a	n/a	n/a	n/a	n/a	n/a	n/a	n/a	n/a	n/a	n/a	n/a	n/a	n/a	n/a	n/a	n/a	n/a	n/a	n/a	n/a	n/a	n/a	n/a	n/a	n/a	n/a	n/a	n/a	n/a	n/a	n/a	n/a	n/a	n/a	n/a	n/a	5	n/a	n/a
249.6	0.8	n/a	n/a	n/a	n/a	n/a	n/a	n/a	n/a	n/a	n/a	n/a	n/a	n/a	n/a	n/a	n/a	n/a	n/a	n/a	n/a	n/a	n/a	n/a	n/a	n/a	n/a	n/a	n/a	n/a	n/a	n/a	n/a	n/a	n/a	n/a	n/a	n/a	n/a	n/a	n/a	n/a	n/a	n/a	n/a	n/a	n/a	n/a	n/a	5	n/a	n/a
251.2	0.8	n/a	n/a	n/a	n/a	n/a	n/a	n/a	n/a	n/a	n/a	n/a	n/a	n/a	n/a	n/a	n/a	n/a	n/a	n/a	n/a	n/a	n/a	n/a	n/a	n/a	n/a	n/a	n/a	n/a	n/a	n/a	n/a	n/a	n/a	n/a	n/a	n/a	n/a	n/a	n/a	n/a	n/a	n/a	n/a	n/a	n/a	n/a	n/a	7	n/a	n/a
252.8	0.8	n/a	n/a	n/a	n/a	n/a	n/a	n/a	n/a	n/a	n/a	n/a	n/a	n/a	n/a	n/a	n/a	n/a	n/a	n/a	n/a	n/a	n/a	n/a	n/a	n/a	n/a	n/a	n/a	n/a	n/a	n/a	n/a	n/a	n/a	n/a	n/a	n/a	n/a	n/a	n/a	n/a	n/a	n/a	n/a	n/a	n/a	n/a	n/a	5	n/a	n/a
254.4	0.8	n/a	n/a	n/a	n/a	n/a	n/a	n/a	n/a	n/a	n/a	n/a	n/a	n/a	n/a	n/a	n/a	n/a	n/a	n/a	n/a	n/a	n/a	n/a	n/a	n/a	n/a	n/a	n/a	n/a	n/a	n/a	n/a	n/a	n/a	n/a	n/a	n/a	n/a	n/a	n/a	n/a	n/a	n/a	n/a	n/a	n/a	n/a	n/a	5	n/a	n/a
256	0.8	n/a	n/a	n/a	n/a	n/a	n/a	n/a	n/a	n/a	n/a	n/a	n/a	n/a	n/a	n/a	n/a	n/a	n/a	n/a	n/a	n/a	n/a	n/a	n/a	n/a	n/a	n/a	n/a	n/a	n/a	n/a	n/a	n/a	n/a	n/a	n/a	n/a	n/a	n/a	n/a	n/a	n/a	n/a	n/a	n/a	n/a	n/a	n/a	7	n/a	n/a
257.6	0.8	n/a	n/a	n/a	n/a	n/a	n/a	n/a	n/a	n/a	n/a	n/a	n/a	n/a	n/a	n/a	n/a	n/a	n/a	n/a	n/a	n/a	n/a	n/a	n/a	n/a	n/a	n/a	n/a	n/a	n/a	n/a	n/a	n/a	n/a	n/a	n/a	n/a	n/a	n/a	n/a	n/a	n/a	n/a	n/a	n/a	n/a	n/a	n/a	7	n/a	n/a
259.2	0.8	n/a	n/a	n/a	n/a	n/a	n/a	n/a	n/a	n/a	n/a	n/a	n/a	n/a	n/a	n/a	n/a	n/a	n/a	n/a	n/a	n/a	n/a	n/a	n/a	n/a	n/a	n/a	n/a	n/a	n/a	n/a	n/a	n/a	n/a	n/a	n/a	n/a	n/a	n/a	n/a	n/a	n/a	n/a	n/a	n/a	n/a	n/a	n/a	7	n/a	n/a
260.8	0.8	n/a	n/a	n/a	n/a	n/a	n/a	n/a	n/a	n/a	n/a	n/a	n/a	n/a	n/a	n/a	n/a	n/a	n/a	n/a	n/a	n/a	n/a	n/a	n/a	n/a	n/a	n/a	n/a	n/a	n/a	n/a	n/a	n/a	n/a	n/a	n/a	n/a	n/a	n/a	n/a	n/a	n/a	n/a	n/a	n/a	n/a	n/a	n/a	5	n/a	n/a
262.4	0.8	n/a	n/a	n/a	n/a	n/a	n/a	n/a	n/a	n/a	n/a	n/a	n/a	n/a	n/a	n/a	n/a	n/a	n/a	n/a	n/a	n/a	n/a	n/a	n/a	n/a	n/a	n/a	n/a	n/a	n/a	n/a	n/a	n/a	n/a	n/a	n/a	n/a	n/a	n/a	n/a	n/a	n/a	n/a	n/a	n/a	n/a	n/a	n/a	5	n/a	n/a
264	0.8	n/a	n/a	n/a	n/a	n/a	n/a	n/a	n/a	n/a	n/a	n/a	n/a	n/a	n/a	n/a	n/a	n/a	n/a	n/a	n/a	n/a	n/a	n/a	n/a	n/a	n/a	n/a	n/a	n/a	n/a	n/a	n/a	n/a	n/a	n/a	n/a	n/a	n/a	n/a	n/a	n/a	n/a	n/a	n/a	n/a	n/a	n/a	n/a	7	n/a	n/a
265.6	0.8	n/a	n/a	n/a	n/a	n/a	n/a	n/a	n/a	n/a	n/a	n/a	n/a	n/a	n/a	n/a	n/a	n/a	n/a	n/a	n/a	n/a	n/a	n/a	n/a	n/a	n/a	n/a	n/a	n/a	n/a	n/a	n/a	n/a	n/a	n/a	n/a	n/a	n/a	n/a	n/a	n/a	n/a	n/a	n/a	n/a	n/a	n/a	n/a	7	n/a	n/a
267.2	0.8	n/a	n/a	n/a	n/a	n/a	n/a	n/a	n/a	n/a	n/a	n/a	n/a	n/a	n/a	n/a	n/a	n/a	n/a	n/a	n/a	n/a	n/a	n/a	n/a	n/a	n/a	n/a	n/a	n/a	n/a	n/a	n/a	n/a	n/a	n/a	n/a	n/a	n/a	n/a	n/a	n/a	n/a	n/a	n/a	n/a	n/a	n/a	n/a	7	n/a	n/a
268.8	0.8	n/a	n/a	n/a	n/a	n/a	n/a	n/a	n/a	n/a	n/a	n/a	n/a	n/a	n/a	n/a	n/a	n/a	n/a	n/a	n/a	n/a	n/a	n/a	n/a	n/a	n/a	n/a	n/a	n/a	n/a	n/a	n/a	n/a	n/a	n/a	n/a	n/a	n/a	n/a	n/a	n/a	n/a	n/a	n/a	n/a	n/a	n/a	n/a	5	n/a	n/a
270.4	0.8	n/a	n/a	n/a	n/a	n/a	n/a	n/a	n/a	n/a	n/a	n/a	n/a	n/a	n/a	n/a	n/a	n/a	n/a	n/a	n/a	n/a	n/a	n/a	n/a	n/a	n/a	n/a	n/a	n/a	n/a	n/a	n/a	n/a	n/a	n/a	n/a	n/a	n/a	n/a	n/a	n/a	n/a	n/a	n/a	n/a	n/a	n/a	n/a	7	n/a	n/a
272	0.8	n/a	n/a	n/a	n/a	n/a	n/a	n/a	n/a	n/a	n/a	n/a	n/a	n/a	n/a	n/a	n/a	n/a	n/a	n/a	n/a	n/a	n/a	n/a	n/a	n/a	n/a	n/a	n/a	n/a	n/a	n/a	n/a	n/a	n/a	n/a	n/a	n/a	n/a	n/a	n/a	n/a	n/a	n/a	n/a	n/a	n/a	n/a	n/a	5	n/a	n/a
273.6	0.8	n/a	n/a	n/a	n/a	n/a	n/a	n/a	n/a	n/a	n/a	n/a	n/a	n/a	n/a	n/a	n/a	n/a	n/a	n/a	n/a	n/a	n/a	n/a	n/a	n/a	n/a	n/a	n/a	n/a	n/a	n/a	n/a	n/a	n/a	n/a	n/a	n/a	n/a	n/a	n/a	n/a	n/a	n/a	n/a	n/a	n/a	n/a	n/a	7	n/a	n/a
275.2	0.8	n/a	n/a	n/a	n/a	n/a	n/a	n/a	n/a	n/a	n/a	n/a	n/a	n/a	n/a	n/a	n/a	n/a	n/a	n/a	n/a	n/a	n/a	n/a	n/a	n/a	n/a	n/a	n/a	n/a	n/a	n/a	n/a	n/a	n/a	n/a	n/a	n/a	n/a	n/a	n/a	n/a	n/a	n/a	n/a	n/a	n/a	n/a	n/a	7	n/a	n/a
276.8	0.8	n/a	n/a	n/a	n/a	n/a	n/a	n/a	n/a	n/a	n/a	n/a	n/a	n/a	n/a	n/a	n/a	n/a	n/a	n/a	n/a	n/a	n/a	n/a	n/a	n/a	n/a	n/a	n/a	n/a	n/a	n/a	n/a	n/a	n/a	n/a	n/a	n/a	n/a	n/a	n/a	n/a	n/a	n/a	n/a	n/a	n/a	n/a	n/a	5	n/a	n/a
278.4	0.8	n/a	n/a	n/a	n/a	n/a	n/a	n/a	n/a	n/a	n/a	n/a	n/a	n/a	n/a	n/a	n/a	n/a	n/a	n/a	n/a	n/a	n/a	n/a	n/a	n/a	n/a	n/a	n/a	n/a	n/a	n/a	n/a	n/a	n/a	n/a	n/a	n/a	n/a	n/a	n/a	n/a	n/a	n/a	n/a	n/a	n/a	n/a	n/a	5	n/a	n/a
280	0.8	n/a	n/a	n/a	n/a	n/a	n/a	n/a	n/a	n/a	n/a	n/a	n/a	n/a	n/a	n/a	n/a	n/a	n/a	n/a	n/a	n/a	n/a	n/a	n/a	n/a	n/a	n/a	n/a	n/a	n/a	n/a	n/a	n/a	n/a	n/a	n/a	n/a	n/a	n/a	n/a	n/a	n/a	n/a	n/a	n/a	n/a	n/a	n/a	7	n/a	n/a
281.6	0.8	n/a	n/a	n/a	n/a	n/a	n/a	n/a	n/a	n/a	n/a	n/a	n/a	n/a	n/a	n/a	n/a	n/a	n/a	n/a	n/a	n/a	n/a	n/a	n/a	n/a	n/a	n/a	n/a	n/a	n/a	n/a	n/a	n/a	n/a	n/a	n/a	n/a	n/a	n/a	n/a	n/a	n/a	n/a	n/a	n/a	n/a	n/a	n/a	5	n/a	n/a
283.2	0.8	n/a	n/a	n/a	n/a	n/a	n/a	n/a	n/a	n/a	n/a	n/a	n/a	n/a	n/a	n/a	n/a	n/a	n/a	n/a	n/a	n/a	n/a	n/a	n/a	n/a	n/a	n/a	n/a	n/a	n/a	n/a	n/a	n/a	n/a	n/a	n/a	n/a	n/a	n/a	n/a	n/a	n/a	n/a	n/a	n/a	n/a	n/a	n/a	7	n/a	n/a
284.8	0.8	n/a	n/a	n/a	n/a	n/a	n/a	n/a	n/a	n/a	n/a	n/a	n/a	n/a	n/a	n/a	n/a	n/a	n/a	n/a	n/a	n/a	n/a	n/a	n/a	n/a	n/a	n/a	n/a	n/a	n/a	n/a	n/a	n/a	n/a	n/a	n/a	n/a	n/a	n/a	n/a	n/a	n/a	n/a	n/a	n/a	n/a	n/a	n/a	7	n/a	n/a
286.4	0.8	n/a	n/a	n/a	n/a	n/a	n/a	n/a	n/a	n/a	n/a	n/a	n/a	n/a	n/a	n/a	n/a	n/a	n/a	n/a	n/a	n/a	n/a	n/a	n/a	n/a	n/a	n/a	n/a	n/a	n/a	n/a	n/a	n/a	n/a	n/a	n/a	n/a	n/a	n/a	n/a	n/a	n/a	n/a	n/a	n/a	n/a	n/a	n/a	5	n/a	n/a
288	0.8	n/a	n/a	n/a	n/a	n/a	n/a	n/a	n/a	n/a	n/a	n/a	n/a	n/a	n/a	n/a	n/a	n/a	n/a	n/a	n/a	n/a	n/a	n/a	n/a	n/a	n/a	n/a	n/a	n/a	n/a	n/a	n/a	n/a	n/a	n/a	n/a	n/a	n/a	n/a	n/a	n/a	n/a	n/a	n/a	n/a	n/a	n/a	n/a	7	n/a	n/a
289.6	0.8	n/a	n/a	n/a	n/a	n/a	n/a	n/a	n/a	n/a	n/a	n/a	n/a	n/a	n/a	n/a	n/a	n/a	n/a	n/a	n/a	n/a	n/a	n/a	n/a	n/a	n/a	n/a	n/a	n/a	n/a	n/a	n/a	n/a	n/a	n/a	n/a	n/a	n/a	n/a	n/a	n/a	n/a	n/a	n/a	n/a	n/a	n/a	n/a	7	n/a	n/a
291.2	0.8	n/a	n/a	n/a	n/a	n/a	n/a	n/a	n/a	n/a	n/a	n/a	n/a	n/a	n/a	n/a	n/a	n/a	n/a	n/a	n/a	n/a	n/a	n/a	n/a	n/a	n/a	n/a	n/a	n/a	n/a	n/a	n/a	n/a	n/a	n/a	n/a	n/a	n/a	n/a	n/a	n/a	n/a	n/a	n/a	n/a	n/a	n/a	n/a	7	n/a	n/a
292.8	0.8	n/a	n/a	n/a	n/a	n/a	n/a	n/a	n/a	n/a	n/a	n/a	n/a	n/a	n/a	n/a	n/a	n/a	n/a	n/a	n/a	n/a	n/a	n/a	n/a	n/a	n/a	n/a	n/a	n/a	n/a	n/a	n/a	n/a	n/a	n/a	n/a	n/a	n/a	n/a	n/a	n/a	n/a	n/a	n/a	n/a	n/a	n/a	n/a	5	n/a	n/a
294.4	0.8	n/a	n/a	n/a	n/a	n/a	n/a	n/a	n/a	n/a	n/a	n/a	n/a	n/a	n/a	n/a	n/a	n/a	n/a	n/a	n/a	n/a	n/a	n/a	n/a	n/a	n/a	n/a	n/a	n/a	n/a	n/a	n/a	n/a	n/a	n/a	n/a	n/a	n/a	n/a	n/a	n/a	n/a	n/a	n/a	n/a	n/a	n/a	n/a	7	n/a	n/a
296	0.8	n/a	n/a	n/a	n/a	n/a	n/a	n/a	n/a	n/a	n/a	n/a	n/a	n/a	n/a	n/a	n/a	n/a	n/a	n/a	n/a	n/a	n/a	n/a	n/a	n/a	n/a	n/a	n/a	n/a	n/a	n/a	n/a	n/a	n/a	n/a	n/a	n/a	n/a	n/a	n/a	n/a	n/a	n/a	n/a	n/a	n/a	n/a	n/a	5	n/a	n/a
297.6	0.8	n/a	n/a	n/a	n/a	n/a	n/a	n/a	n/a	n/a	n/a	n/a	n/a	n/a	n/a	n/a	n/a	n/a	n/a	n/a	n/a	n/a	n/a	n/a	n/a	n/a	n/a	n/a	n/a	n/a	n/a	n/a	n/a	n/a	n/a	n/a	n/a	n/a	n/a	n/a	n/a	n/a	n/a	n/a	n/a	n/a	n/a	n/a	n/a	7	n/a	n/a
299.2	0.8	n/a	n/a	n/a	n/a	n/a	n/a	n/a	n/a	n/a	n/a	n/a	n/a	n/a	n/a	n/a	n/a	n/a	n/a	n/a	n/a	n/a	n/a	n/a	n/a	n/a	n/a	n/a	n/a	n/a	n/a	n/a	n/a	n/a	n/a	n/a	n/a	n/a	n/a	n/a	n/a	n/a	n/a	n/a	n/a	n/a	n/a	n/a	n/a	5	n/a	n/a
300.8	0.8	n/a	n/a	n/a	n/a	n/a	n/a	n/a	n/a	n/a	n/a	n/a	n/a	n/a	n/a	n/a	n/a	n/a	n/a	n/a	n/a	n/a	n/a	n/a	n/a	n/a	n/a	n/a	n/a	n/a	n/a	n/a	n/a	n/a	n/a	n/a	n/a	n/a	n/a	n/a	n/a	n/a	n/a	n/a	n/a	n/a	n/a	n/a	n/a	5	n/a	n/a
302.4	0.8	n/a	n/a	n/a	n/a	n/a	n/a	n/a	n/a	n/a	n/a	n/a	n/a	n/a	n/a	n/a	n/a	n/a	n/a	n/a	n/a	n/a	n/a	n/a	n/a	n/a	n/a	n/a	n/a	n/a	n/a	n/a	n/a	n/a	n/a	n/a	n/a	n/a	n/a	n/a	n/a	n/a	n/a	n/a	n/a	n/a	n/a	n/a	n/a	5	n/a	n/a
304	0.8	n/a	n/a	n/a	n/a	n/a	n/a	n/a	n/a	n/a	n/a	n/a	n/a	n/a	n/a	n/a	n/a	n/a	n/a	n/a	n/a	n/a	n/a	n/a	n/a	n/a	n/a	n/a	n/a	n/a	n/a	n/a	n/a	n/a	n/a	n/a	n/a	n/a	n/a	n/a	n/a	n/a	n/a	n/a	n/a	n/a	n/a	n/a	n/a	7	n/a	n/a
305.6	0.8	n/a	n/a	n/a	n/a	n/a	n/a	n/a	n/a	n/a	n/a	n/a	n/a	n/a	n/a	n/a	n/a	n/a	n/a	n/a	n/a	n/a	n/a	n/a	n/a	n/a	n/a	n/a	n/a	n/a	n/a	n/a	n/a	n/a	n/a	n/a	n/a	n/a	n/a	n/a	n/a	n/a	n/a	n/a	n/a	n/a	n/a	n/a	n/a	5	n/a	n/a
307.2	0.8	n/a	n/a	n/a	n/a	n/a	n/a	n/a	n/a	n/a	n/a	n/a	n/a	n/a	n/a	n/a	n/a	n/a	n/a	n/a	n/a	n/a	n/a	n/a	n/a	n/a	n/a	n/a	n/a	n/a	n/a	n/a	n/a	n/a	n/a	n/a	n/a	n/a	n/a	n/a	n/a	n/a	n/a	n/a	n/a	n/a	n/a	n/a	n/a	5	n/a	n/a
308.8	0.8	n/a	n/a	n/a	n/a	n/a	n/a	n/a	n/a	n/a	n/a	n/a	n/a	n/a	n/a	n/a	n/a	n/a	n/a	n/a	n/a	n/a	n/a	n/a	n/a	n/a	n/a	n/a	n/a	n/a	n/a	n/a	n/a	n/a	n/a	n/a	n/a	n/a	n/a	n/a	n/a	n/a	n/a	n/a	n/a	n/a	n/a	n/a	n/a	5	n/a	n/a
310.4	0.8	n/a	n/a	n/a	n/a	n/a	n/a	n/a	n/a	n/a	n/a	n/a	n/a	n/a	n/a	n/a	n/a	n/a	n/a	n/a	n/a	n/a	n/a	n/a	n/a	n/a	n/a	n/a	n/a	n/a	n/a	n/a	n/a	n/a	n/a	n/a	n/a	n/a	n/a	n/a	n/a	n/a	n/a	n/a	n/a	n/a	n/a	n/a	n/a	7	n/a	n/a
312	0.8	n/a	n/a	n/a	n/a	n/a	n/a	n/a	n/a	n/a	n/a	n/a	n/a	n/a	n/a	n/a	n/a	n/a	n/a	n/a	n/a	n/a	n/a	n/a	n/a	n/a	n/a	n/a	n/a	n/a	n/a	n/a	n/a	n/a	n/a	n/a	n/a	n/a	n/a	n/a	n/a	n/a	n/a	n/a	n/a	n/a	n/a	n/a	n/a	5	n/a	n/a
313.6	0.8	n/a	n/a	n/a	n/a	n/a	n/a	n/a	n/a	n/a	n/a	n/a	n/a	n/a	n/a	n/a	n/a	n/a	n/a	n/a	n/a	n/a	n/a	n/a	n/a	n/a	n/a	n/a	n/a	n/a	n/a	n/a	n/a	n/a	n/a	n/a	n/a	n/a	n/a	n/a	n/a	n/a	n/a	n/a	n/a	n/a	n/a	n/a	n/a	7	n/a	n/a
315.2	0.8	n/a	n/a	n/a	n/a	n/a	n/a	n/a	n/a	n/a	n/a	n/a	n/a	n/a	n/a	n/a	n/a	n/a	n/a	n/a	n/a	n/a	n/a	n/a	n/a	n/a	n/a	n/a	n/a	n/a	n/a	n/a	n/a	n/a	n/a	n/a	n/a	n/a	n/a	n/a	n/a	n/a	n/a	n/a	n/a	n/a	n/a	n/a	n/a	5	n/a	n/a
316.8	0.8	n/a	n/a	n/a	n/a	n/a	n/a	n/a	n/a	n/a	n/a	n/a	n/a	n/a	n/a	n/a	n/a	n/a	n/a	n/a	n/a	n/a	n/a	n/a	n/a	n/a	n/a	n/a	n/a	n/a	n/a	n/a	n/a	n/a	n/a	n/a	n/a	n/a	n/a	n/a	n/a	n/a	n/a	n/a	n/a	n/a	n/a	n/a	n/a	7	n/a	n/a
318.4	0.8	n/a	n/a	n/a	n/a	n/a	n/a	n/a	n/a	n/a	n/a	n/a	n/a	n/a	n/a	n/a	n/a	n/a	n/a	n/a	n/a	n/a	n/a	n/a	n/a	n/a	n/a	n/a	n/a	n/a	n/a	n/a	n/a	n/a	n/a	n/a	n/a	n/a	n/a	n/a	n/a	n/a	n/a	n/a	n/a	n/a	n/a	n/a	n/a	5	n/a	n/a
320	0.8	n/a	n/a	n/a	n/a	n/a	n/a	n/a	n/a	n/a	n/a	n/a	n/a	n/a	n/a	n/a	n/a	n/a	n/a	n/a	n/a	n/a	n/a	n/a	n/a	n/a	n/a	n/a	n/a	n/a	n/a	n/a	n/a	n/a	n/a	n/a	n/a	n/a	n/a	n/a	n/a	n/a	n/a	n/a	n/a	n/a	n/a	n/a	n/a	5	n/a	n/a
321.6	0.8	n/a	n/a	n/a	n/a	n/a	n/a	n/a	n/a	n/a	n/a	n/a	n/a	n/a	n/a	n/a	n/a	n/a	n/a	n/a	n/a	n/a	n/a	n/a	n/a	n/a	n/a	n/a	n/a	n/a	n/a	n/a	n/a	n/a	n/a	n/a	n/a	n/a	n/a	n/a	n/a	n/a	n/a	n/a	n/a	n/a	n/a	n/a	n/a	5	n/a	n/a
323.2	0.8	n/a	n/a	n/a	n/a	n/a	n/a	n/a	n/a	n/a	n/a	n/a	n/a	n/a	n/a	n/a	n/a	n/a	n/a	n/a	n/a	n/a	n/a	n/a	n/a	n/a	n/a	n/a	n/a	n/a	n/a	n/a	n/a	n/a	n/a	n/a	n/a	n/a	n/a	n/a	n/a	n/a	n/a	n/a	n/a	n/a	n/a	n/a	n/a	7	n/a	n/a
324.8	0.8	n/a	n/a	n/a	n/a	n/a	n/a	n/a	n/a	n/a	n/a	n/a	n/a	n/a	n/a	n/a	n/a	n/a	n/a	n/a	n/a	n/a	n/a	n/a	n/a	n/a	n/a	n/a	n/a	n/a	n/a	n/a	n/a	n/a	n/a	n/a	n/a	n/a	n/a	n/a	n/a	n/a	n/a	n/a	n/a	n/a	n/a	n/a	n/a	5	n/a	n/a
326.4	0.8	n/a	n/a	n/a	n/a	n/a	n/a	n/a	n/a	n/a	n/a	n/a	n/a	n/a	n/a	n/a	n/a	n/a	n/a	n/a	n/a	n/a	n/a	n/a	n/a	n/a	n/a	n/a	n/a	n/a	n/a	n/a	n/a	n/a	n/a	n/a	n/a	n/a	n/a	n/a	n/a	n/a	n/a	n/a	n/a	n/a	n/a	n/a	n/a	5	n/a	n/a
328	0.8	n/a	n/a	n/a	n/a	n/a	n/a	n/a	n/a	n/a	n/a	n/a	n/a	n/a	n/a	n/a	n/a	n/a	n/a	n/a	n/a	n/a	n/a	n/a	n/a	n/a	n/a	n/a	n/a	n/a	n/a	n/a	n/a	n/a	n/a	n/a	n/a	n/a	n/a	n/a	n/a	n/a	n/a	n/a	n/a	n/a	n/a	n/a	n/a	5	n/a	n/a
329.6	0.8	n/a	n/a	n/a	n/a	n/a	n/a	n/a	n/a	n/a	n/a	n/a	n/a	n/a	n/a	n/a	n/a	n/a	n/a	n/a	n/a	n/a	n/a	n/a	n/a	n/a	n/a	n/a	n/a	n/a	n/a	n/a	n/a	n/a	n/a	n/a	n/a	n/a	n/a	n/a	n/a	n/a	n/a	n/a	n/a	n/a	n/a	n/a	n/a	7	n/a	n/a
0.718	0	n/a	n/a	n/a	n/a	n/a	n/a	n/a	n/a	n/a	n/a	n/a	n/a	n/a	n/a	n/a	n/a	n/a	n/a	n/a	n/a	n/a	n/a	n/a	n/a	n/a	n/a	n/a	n/a	n/a	n/a	n/a	n/a	n/a	n/a	n/a	n/a	n/a	n/a	n/a	n/a	n/a	n/a	n/a	n/a	n/a	n/a	n/a	n/a	n/a	50	0.718
1.972	0	n/a	n/a	n/a	n/a	n/a	n/a	n/a	n/a	n/a	n/a	n/a	n/a	n/a	n/a	n/a	n/a	n/a	n/a	n/a	n/a	n/a	n/a	n/a	n/a	n/a	n/a	n/a	n/a	n/a	n/a	n/a	n/a	n/a	n/a	n/a	n/a	n/a	n/a	n/a	n/a	n/a	n/a	n/a	n/a	n/a	n/a	n/a	n/a	n/a	51	0.372
3.722	0	n/a	n/a	n/a	n/a	n/a	n/a	n/a	n/a	n/a	n/a	n/a	n/a	n/a	n/a	n/a	n/a	n/a	n/a	n/a	n/a	n/a	n/a	n/a	n/a	n/a	n/a	n/a	n/a	n/a	n/a	n/a	n/a	n/a	n/a	n/a	n/a	n/a	n/a	n/a	n/a	n/a	n/a	n/a	n/a	n/a	n/a	n/a	n/a	n/a	50	0.522
5.371	0	n/a	n/a	n/a	n/a	n/a	n/a	n/a	n/a	n/a	n/a	n/a	n/a	n/a	n/a	n/a	n/a	n/a	n/a	n/a	n/a	n/a	n/a	n/a	n/a	n/a	n/a	n/a	n/a	n/a	n/a	n/a	n/a	n/a	n/a	n/a	n/a	n/a	n/a	n/a	n/a	n/a	n/a	n/a	n/a	n/a	n/a	n/a	n/a	n/a	50	0.571
6.909	0	n/a	n/a	n/a	n/a	n/a	n/a	n/a	n/a	n/a	n/a	n/a	n/a	n/a	n/a	n/a	n/a	n/a	n/a	n/a	n/a	n/a	n/a	n/a	n/a	n/a	n/a	n/a	n/a	n/a	n/a	n/a	n/a	n/a	n/a	n/a	n/a	n/a	n/a	n/a	n/a	n/a	n/a	n/a	n/a	n/a	n/a	n/a	n/a	n/a	50	0.508999999999999
8.51	0	n/a	n/a	n/a	n/a	n/a	n/a	n/a	n/a	n/a	n/a	n/a	n/a	n/a	n/a	n/a	n/a	n/a	n/a	n/a	n/a	n/a	n/a	n/a	n/a	n/a	n/a	n/a	n/a	n/a	n/a	n/a	n/a	n/a	n/a	n/a	n/a	n/a	n/a	n/a	n/a	n/a	n/a	n/a	n/a	n/a	n/a	n/a	n/a	n/a	51	0.51
10.136	0	n/a	n/a	n/a	n/a	n/a	n/a	n/a	n/a	n/a	n/a	n/a	n/a	n/a	n/a	n/a	n/a	n/a	n/a	n/a	n/a	n/a	n/a	n/a	n/a	n/a	n/a	n/a	n/a	n/a	n/a	n/a	n/a	n/a	n/a	n/a	n/a	n/a	n/a	n/a	n/a	n/a	n/a	n/a	n/a	n/a	n/a	n/a	n/a	n/a	50	0.535999999999998
11.76	0	n/a	n/a	n/a	n/a	n/a	n/a	n/a	n/a	n/a	n/a	n/a	n/a	n/a	n/a	n/a	n/a	n/a	n/a	n/a	n/a	n/a	n/a	n/a	n/a	n/a	n/a	n/a	n/a	n/a	n/a	n/a	n/a	n/a	n/a	n/a	n/a	n/a	n/a	n/a	n/a	n/a	n/a	n/a	n/a	n/a	n/a	n/a	n/a	n/a	50	0.559999999999999
13.374	0	n/a	n/a	n/a	n/a	n/a	n/a	n/a	n/a	n/a	n/a	n/a	n/a	n/a	n/a	n/a	n/a	n/a	n/a	n/a	n/a	n/a	n/a	n/a	n/a	n/a	n/a	n/a	n/a	n/a	n/a	n/a	n/a	n/a	n/a	n/a	n/a	n/a	n/a	n/a	n/a	n/a	n/a	n/a	n/a	n/a	n/a	n/a	n/a	n/a	50	0.574
14.888	0	n/a	n/a	n/a	n/a	n/a	n/a	n/a	n/a	n/a	n/a	n/a	n/a	n/a	n/a	n/a	n/a	n/a	n/a	n/a	n/a	n/a	n/a	n/a	n/a	n/a	n/a	n/a	n/a	n/a	n/a	n/a	n/a	n/a	n/a	n/a	n/a	n/a	n/a	n/a	n/a	n/a	n/a	n/a	n/a	n/a	n/a	n/a	n/a	n/a	51	0.488
16.548	0	n/a	n/a	n/a	n/a	n/a	n/a	n/a	n/a	n/a	n/a	n/a	n/a	n/a	n/a	n/a	n/a	n/a	n/a	n/a	n/a	n/a	n/a	n/a	n/a	n/a	n/a	n/a	n/a	n/a	n/a	n/a	n/a	n/a	n/a	n/a	n/a	n/a	n/a	n/a	n/a	n/a	n/a	n/a	n/a	n/a	n/a	n/a	n/a	n/a	50	0.547999999999998
18.059	0	n/a	n/a	n/a	n/a	n/a	n/a	n/a	n/a	n/a	n/a	n/a	n/a	n/a	n/a	n/a	n/a	n/a	n/a	n/a	n/a	n/a	n/a	n/a	n/a	n/a	n/a	n/a	n/a	n/a	n/a	n/a	n/a	n/a	n/a	n/a	n/a	n/a	n/a	n/a	n/a	n/a	n/a	n/a	n/a	n/a	n/a	n/a	n/a	n/a	51	0.459
19.617	0	n/a	n/a	n/a	n/a	n/a	n/a	n/a	n/a	n/a	n/a	n/a	n/a	n/a	n/a	n/a	n/a	n/a	n/a	n/a	n/a	n/a	n/a	n/a	n/a	n/a	n/a	n/a	n/a	n/a	n/a	n/a	n/a	n/a	n/a	n/a	n/a	n/a	n/a	n/a	n/a	n/a	n/a	n/a	n/a	n/a	n/a	n/a	n/a	n/a	50	0.416999999999998
21.237	0	n/a	n/a	n/a	n/a	n/a	n/a	n/a	n/a	n/a	n/a	n/a	n/a	n/a	n/a	n/a	n/a	n/a	n/a	n/a	n/a	n/a	n/a	n/a	n/a	n/a	n/a	n/a	n/a	n/a	n/a	n/a	n/a	n/a	n/a	n/a	n/a	n/a	n/a	n/a	n/a	n/a	n/a	n/a	n/a	n/a	n/a	n/a	n/a	n/a	51	0.436999999999998
22.896	0	n/a	n/a	n/a	n/a	n/a	n/a	n/a	n/a	n/a	n/a	n/a	n/a	n/a	n/a	n/a	n/a	n/a	n/a	n/a	n/a	n/a	n/a	n/a	n/a	n/a	n/a	n/a	n/a	n/a	n/a	n/a	n/a	n/a	n/a	n/a	n/a	n/a	n/a	n/a	n/a	n/a	n/a	n/a	n/a	n/a	n/a	n/a	n/a	n/a	50	0.495999999999999
24.43	0	n/a	n/a	n/a	n/a	n/a	n/a	n/a	n/a	n/a	n/a	n/a	n/a	n/a	n/a	n/a	n/a	n/a	n/a	n/a	n/a	n/a	n/a	n/a	n/a	n/a	n/a	n/a	n/a	n/a	n/a	n/a	n/a	n/a	n/a	n/a	n/a	n/a	n/a	n/a	n/a	n/a	n/a	n/a	n/a	n/a	n/a	n/a	n/a	n/a	51	0.43
26.213	0	n/a	n/a	n/a	n/a	n/a	n/a	n/a	n/a	n/a	n/a	n/a	n/a	n/a	n/a	n/a	n/a	n/a	n/a	n/a	n/a	n/a	n/a	n/a	n/a	n/a	n/a	n/a	n/a	n/a	n/a	n/a	n/a	n/a	n/a	n/a	n/a	n/a	n/a	n/a	n/a	n/a	n/a	n/a	n/a	n/a	n/a	n/a	n/a	n/a	50	0.613
27.702	0	n/a	n/a	n/a	n/a	n/a	n/a	n/a	n/a	n/a	n/a	n/a	n/a	n/a	n/a	n/a	n/a	n/a	n/a	n/a	n/a	n/a	n/a	n/a	n/a	n/a	n/a	n/a	n/a	n/a	n/a	n/a	n/a	n/a	n/a	n/a	n/a	n/a	n/a	n/a	n/a	n/a	n/a	n/a	n/a	n/a	n/a	n/a	n/a	n/a	51	0.501999999999999
29.402	0	n/a	n/a	n/a	n/a	n/a	n/a	n/a	n/a	n/a	n/a	n/a	n/a	n/a	n/a	n/a	n/a	n/a	n/a	n/a	n/a	n/a	n/a	n/a	n/a	n/a	n/a	n/a	n/a	n/a	n/a	n/a	n/a	n/a	n/a	n/a	n/a	n/a	n/a	n/a	n/a	n/a	n/a	n/a	n/a	n/a	n/a	n/a	n/a	n/a	50	0.602
30.865	0	n/a	n/a	n/a	n/a	n/a	n/a	n/a	n/a	n/a	n/a	n/a	n/a	n/a	n/a	n/a	n/a	n/a	n/a	n/a	n/a	n/a	n/a	n/a	n/a	n/a	n/a	n/a	n/a	n/a	n/a	n/a	n/a	n/a	n/a	n/a	n/a	n/a	n/a	n/a	n/a	n/a	n/a	n/a	n/a	n/a	n/a	n/a	n/a	n/a	51	0.464999999999996
32.554	0	n/a	n/a	n/a	n/a	n/a	n/a	n/a	n/a	n/a	n/a	n/a	n/a	n/a	n/a	n/a	n/a	n/a	n/a	n/a	n/a	n/a	n/a	n/a	n/a	n/a	n/a	n/a	n/a	n/a	n/a	n/a	n/a	n/a	n/a	n/a	n/a	n/a	n/a	n/a	n/a	n/a	n/a	n/a	n/a	n/a	n/a	n/a	n/a	n/a	51	0.554000000000002
34.18	0	n/a	n/a	n/a	n/a	n/a	n/a	n/a	n/a	n/a	n/a	n/a	n/a	n/a	n/a	n/a	n/a	n/a	n/a	n/a	n/a	n/a	n/a	n/a	n/a	n/a	n/a	n/a	n/a	n/a	n/a	n/a	n/a	n/a	n/a	n/a	n/a	n/a	n/a	n/a	n/a	n/a	n/a	n/a	n/a	n/a	n/a	n/a	n/a	n/a	51	0.579999999999998
