onset	duration	sector_1	sector_2	sector_3	sector_4	sector_5	sector_6	sector_7	sector_8	sector_9	sector_10	sector_11	sector_12	sector_13	sector_14	sector_15	sector_16	sector_17	sector_18	sector_19	sector_20	sector_21	sector_22	sector_23	sector_24	sector_25	sector_26	sector_27	sector_28	sector_29	sector_30	sector_31	sector_32	sector_33	sector_34	sector_35	sector_36	sector_37	sector_38	sector_39	sector_40	sector_41	sector_42	sector_43	sector_44	sector_45	sector_46	sector_47	sector_48	stim	resp	RT
15.045	3	0.333333333333333	1	1	0.666666666666667	0	0	1	0.333333333333333	0.333333333333333	0.333333333333333	1	0.666666666666667	0.333333333333333	0.333333333333333	1	0	1	0.333333333333333	0.666666666666667	1	0.666666666666667	1	0	0	0	0	0.666666666666667	0.333333333333333	0.333333333333333	0.333333333333333	0.333333333333333	1	0.666666666666667	0.666666666666667	0.666666666666667	0.666666666666667	1	1	0.666666666666667	0.666666666666667	0.666666666666667	0.333333333333333	0.333333333333333	0.333333333333333	0	0	0.333333333333333	0	n/a	n/a	n/a
18.079	3	0.666666666666667	0	0.333333333333333	0.666666666666667	0.333333333333333	0	0.333333333333333	0.666666666666667	0.666666666666667	0.333333333333333	1	0.333333333333333	0	0.333333333333333	0	0.333333333333333	0	0.666666666666667	0.333333333333333	0	0	0.666666666666667	0.666666666666667	0	0	1	1	0	0.666666666666667	0	0.333333333333333	0.333333333333333	0.333333333333333	0.333333333333333	0	1	0.666666666666667	0.666666666666667	0.666666666666667	0	1	1	0.333333333333333	1	0.666666666666667	1	1	0	n/a	n/a	n/a
21.114	3	0.333333333333333	0.666666666666667	0	0	0	1	1	0.333333333333333	0.333333333333333	0.666666666666667	0.333333333333333	1	0	0	0.666666666666667	0	1	0.666666666666667	0.666666666666667	0	1	0.333333333333333	0	1	1	1	0.666666666666667	0	0	0	0	0.666666666666667	1	1	1	0	1	0	0.333333333333333	1	0.666666666666667	0	0	1	0	0.666666666666667	1	0.333333333333333	n/a	n/a	n/a
24.149	3	1	1	1	0	0.666666666666667	0	0	0	0.333333333333333	0	1	1	0.333333333333333	0	0.333333333333333	0.666666666666667	0.333333333333333	0.333333333333333	1	1	0.666666666666667	1	0.666666666666667	0	0.666666666666667	0	1	0.666666666666667	1	1	1	0.666666666666667	0	0.333333333333333	0	0.333333333333333	1	0.666666666666667	0.333333333333333	1	0.333333333333333	1	1	0	0.666666666666667	0	0.666666666666667	0	n/a	n/a	n/a
27.067	3	0.333333333333333	0.666666666666667	0.666666666666667	1	0.666666666666667	0.333333333333333	0	0.666666666666667	0.333333333333333	0.666666666666667	1	1	1	0	0.333333333333333	0.333333333333333	1	0.333333333333333	0	0	0	0.666666666666667	0.333333333333333	1	0.666666666666667	0.666666666666667	0.333333333333333	1	1	0.666666666666667	1	0	0	1	0.666666666666667	0.333333333333333	0	0.666666666666667	0.333333333333333	0.666666666666667	0.666666666666667	0	0.666666666666667	0.666666666666667	0	0	0.333333333333333	1	n/a	n/a	n/a
30.102	3	0.666666666666667	0.666666666666667	1	0	0	1	0	0.666666666666667	0.666666666666667	0	1	1	1	0.666666666666667	0.666666666666667	0	1	0.666666666666667	1	0	0.666666666666667	0.333333333333333	0.333333333333333	0.333333333333333	1	0	0.333333333333333	0	0.333333333333333	1	0.666666666666667	0.333333333333333	0.333333333333333	0	1	0.666666666666667	1	0.333333333333333	0.333333333333333	1	1	0.333333333333333	0.333333333333333	1	0	0	0.333333333333333	0	n/a	n/a	n/a
33.136	3	0.666666666666667	0	0	1	0	1	0.666666666666667	0.666666666666667	0.666666666666667	1	1	0.333333333333333	0	0.666666666666667	0	0.333333333333333	0	0	0.666666666666667	0.666666666666667	0	0.333333333333333	0.333333333333333	0	1	0.666666666666667	0	0.333333333333333	0.666666666666667	1	0	1	0	0	1	1	0.333333333333333	0.666666666666667	0.666666666666667	1	0.333333333333333	1	0	0.333333333333333	0.333333333333333	0.333333333333333	0.333333333333333	0	n/a	n/a	n/a
36.054	3	0.333333333333333	0	1	1	0.666666666666667	1	0	0	0.666666666666667	0	0.333333333333333	0.666666666666667	0.333333333333333	0.666666666666667	0.333333333333333	0	1	0.333333333333333	0	0.333333333333333	0.333333333333333	0.333333333333333	0	1	0	0	0	0	1	0	0.333333333333333	0.666666666666667	0.666666666666667	0	0.333333333333333	0.333333333333333	0	1	0	0.666666666666667	1	1	0	0.666666666666667	1	0.333333333333333	1	0	n/a	n/a	n/a
39.088	3	0.333333333333333	0.666666666666667	0	0.666666666666667	0	1	0	0	0	0	0	1	0.666666666666667	0.333333333333333	0	0	0.333333333333333	1	0.666666666666667	0.333333333333333	0.666666666666667	1	0.666666666666667	1	0	0.666666666666667	0.333333333333333	0	0	0	1	0.666666666666667	0	1	0	0.333333333333333	1	0	1	0.666666666666667	1	0	1	0.666666666666667	0.666666666666667	1	1	1	n/a	n/a	n/a
42.123	3	0.333333333333333	1	1	1	1	0	0.333333333333333	0.333333333333333	0.333333333333333	0.666666666666667	0.333333333333333	0	0.333333333333333	0.333333333333333	0.333333333333333	0	0.333333333333333	1	0.333333333333333	0.666666666666667	0.666666666666667	1	0.666666666666667	0	1	1	0.666666666666667	0.333333333333333	1	1	0.333333333333333	0.666666666666667	1	1	0.333333333333333	0	0.666666666666667	1	1	0.666666666666667	0	0	0	0.333333333333333	1	1	1	0	n/a	n/a	n/a
45.157	3	0.333333333333333	0.333333333333333	0.666666666666667	1	0	0.333333333333333	0.666666666666667	0	0.666666666666667	0.666666666666667	0.666666666666667	0.333333333333333	1	0	0.333333333333333	1	1	0.666666666666667	0.333333333333333	0.666666666666667	0.666666666666667	0.666666666666667	0.333333333333333	1	1	0	0.666666666666667	0.666666666666667	1	1	0.333333333333333	0.666666666666667	0	1	1	0.666666666666667	0.333333333333333	0	0	0.666666666666667	1	0.333333333333333	0.333333333333333	0.333333333333333	0.666666666666667	1	0	0.333333333333333	n/a	n/a	n/a
48.075	3	0.333333333333333	1	0.666666666666667	0	1	0	0.666666666666667	0.666666666666667	1	0.666666666666667	0.666666666666667	0.333333333333333	0	0.333333333333333	0.333333333333333	1	0.333333333333333	0.666666666666667	1	0.666666666666667	1	0.333333333333333	1	0.333333333333333	0.666666666666667	1	1	0.333333333333333	1	1	0.666666666666667	0.666666666666667	0	0.666666666666667	1	0.666666666666667	1	1	0.333333333333333	0.333333333333333	0	0.333333333333333	0	0	0.666666666666667	1	0.333333333333333	0	n/a	n/a	n/a
51.11	3	0.666666666666667	0.666666666666667	1	0.666666666666667	0	0	0.666666666666667	0.333333333333333	0	1	0.666666666666667	0	0.333333333333333	1	0.666666666666667	0.666666666666667	0.333333333333333	0.333333333333333	0.666666666666667	1	0	0.666666666666667	0.333333333333333	1	0.666666666666667	0	0.333333333333333	0	0.333333333333333	1	0.666666666666667	0.333333333333333	1	0	1	0.666666666666667	0.666666666666667	1	0.333333333333333	0	1	0.333333333333333	0	1	0	0	0.666666666666667	1	n/a	n/a	n/a
54.145	3	1	0.666666666666667	1	0	0.666666666666667	1	0	0	0.333333333333333	0.333333333333333	1	1	1	0.666666666666667	0	0.666666666666667	0.666666666666667	1	1	0.666666666666667	0.666666666666667	0	1	0.333333333333333	0	1	0.333333333333333	0.333333333333333	1	0.666666666666667	0.666666666666667	0.333333333333333	0	0.666666666666667	0.333333333333333	0.333333333333333	0	0.666666666666667	0	1	0.333333333333333	0.333333333333333	0.666666666666667	0.666666666666667	0.666666666666667	0.666666666666667	0.666666666666667	1	n/a	n/a	n/a
57.063	3	0.333333333333333	0.333333333333333	1	0.666666666666667	0.333333333333333	0.333333333333333	0	0	0.666666666666667	0.666666666666667	1	0.666666666666667	0.333333333333333	0.666666666666667	0.666666666666667	1	1	0	0.666666666666667	0	0.666666666666667	1	0	0.333333333333333	1	0.666666666666667	1	0	0.333333333333333	0	0	1	1	0	0.333333333333333	0.666666666666667	0.666666666666667	0	0.666666666666667	0.666666666666667	0	0.333333333333333	0	0	0.333333333333333	0.666666666666667	1	1	n/a	n/a	n/a
60.097	3	0.333333333333333	1	1	0	0.666666666666667	1	0.666666666666667	1	0	0.666666666666667	0.666666666666667	1	0.666666666666667	0.333333333333333	1	0.333333333333333	0.333333333333333	0	1	0	1	0	1	0.666666666666667	0.666666666666667	0.666666666666667	0	0.666666666666667	1	0	0.666666666666667	0	0	0.333333333333333	1	0	1	0.333333333333333	1	1	0	0.666666666666667	0	0.333333333333333	0	0.666666666666667	0	0.666666666666667	n/a	n/a	n/a
63.131	3	0	0	0.666666666666667	0.333333333333333	1	0.333333333333333	0.333333333333333	0.666666666666667	0.666666666666667	0.333333333333333	1	1	0.666666666666667	1	1	1	0	0	0.333333333333333	0	1	1	0.333333333333333	0	0	0.666666666666667	0.666666666666667	0	0	1	0	0	0.666666666666667	1	0.333333333333333	0.333333333333333	0	0.333333333333333	0.666666666666667	0.333333333333333	0.666666666666667	0.333333333333333	0	0.333333333333333	0.666666666666667	0.666666666666667	0	0.333333333333333	n/a	n/a	n/a
66.049	3	0.333333333333333	0.666666666666667	0.666666666666667	0.333333333333333	0.333333333333333	0.333333333333333	0.333333333333333	0.666666666666667	0.333333333333333	0.333333333333333	0	0.666666666666667	0.333333333333333	0.666666666666667	0	0	0	0	1	0.333333333333333	0	0.333333333333333	0	0	1	0.666666666666667	0.333333333333333	0	1	1	0	0.666666666666667	1	0.333333333333333	0.333333333333333	0.333333333333333	0	1	0.666666666666667	0.666666666666667	0.333333333333333	0.333333333333333	0.333333333333333	1	0	1	1	0.333333333333333	n/a	n/a	n/a
69.084	3	0.666666666666667	0.333333333333333	0	1	0.666666666666667	0.666666666666667	0	0	0.666666666666667	0.666666666666667	0.333333333333333	0	0	1	1	1	0.333333333333333	1	0.333333333333333	0.666666666666667	1	1	0.333333333333333	1	0	0.666666666666667	1	0	0.666666666666667	0.333333333333333	0.333333333333333	0	0.333333333333333	0.333333333333333	0	0.333333333333333	1	0	0.333333333333333	0.333333333333333	0	0.333333333333333	0	0.333333333333333	0	0.666666666666667	0.333333333333333	1	n/a	n/a	n/a
72.118	3	0.666666666666667	0.666666666666667	0.666666666666667	0.666666666666667	0.333333333333333	0	1	0	1	0.333333333333333	0.666666666666667	1	0	0.666666666666667	1	0.666666666666667	1	0	0	0.333333333333333	0	0	0.666666666666667	1	1	0.333333333333333	0.666666666666667	0.666666666666667	0.333333333333333	1	0.666666666666667	0.666666666666667	1	0.666666666666667	0	0.333333333333333	0	1	0.666666666666667	0	0.333333333333333	1	0.333333333333333	0.666666666666667	1	0.333333333333333	0	0.333333333333333	n/a	n/a	n/a
75.153	3	0.333333333333333	0	0	0	0.666666666666667	0.333333333333333	0	1	0.333333333333333	0.333333333333333	1	0.333333333333333	0.333333333333333	1	0.333333333333333	0.333333333333333	0.666666666666667	0	0	1	0	0	0	0.333333333333333	1	1	0.333333333333333	0.333333333333333	0.666666666666667	1	0	0.333333333333333	0.333333333333333	0.666666666666667	0	0.333333333333333	0	0	0.333333333333333	0.333333333333333	1	0.333333333333333	0	1	0.666666666666667	0.666666666666667	0	0	n/a	n/a	n/a
78.07	3	0.666666666666667	1	0	0.333333333333333	0.666666666666667	0	0.333333333333333	1	1	0.666666666666667	0.333333333333333	0	0.333333333333333	0.666666666666667	0.333333333333333	0.666666666666667	0.666666666666667	0.333333333333333	1	0.333333333333333	0	0	0	1	0.666666666666667	1	0.666666666666667	0.666666666666667	0	0	0.666666666666667	0.666666666666667	0.333333333333333	1	0.333333333333333	0.666666666666667	0.333333333333333	0.333333333333333	0.666666666666667	0.666666666666667	0.333333333333333	0	0.333333333333333	0.666666666666667	0.333333333333333	0.333333333333333	0	0.333333333333333	n/a	n/a	n/a
81.106	3	0	0	0	0.333333333333333	0	0	0.666666666666667	0.333333333333333	0	1	1	0.333333333333333	1	0	1	0.666666666666667	0.333333333333333	0.333333333333333	0.666666666666667	0.333333333333333	0	0.333333333333333	0	0.666666666666667	0.333333333333333	1	0.666666666666667	0.333333333333333	0.333333333333333	0.333333333333333	0.666666666666667	0.666666666666667	0.666666666666667	0	0.666666666666667	1	0	0.666666666666667	0	0	0	0.333333333333333	0.666666666666667	1	0	0.666666666666667	1	0	n/a	n/a	n/a
84.14	3	1	0	0.666666666666667	0.333333333333333	0.666666666666667	0.333333333333333	0.666666666666667	0	0.666666666666667	1	0.333333333333333	0	1	0	0.666666666666667	0.666666666666667	1	1	0.333333333333333	0.666666666666667	0.666666666666667	0.666666666666667	0.666666666666667	0	1	1	0.333333333333333	0.666666666666667	0.666666666666667	0.333333333333333	1	0	0.333333333333333	1	0.666666666666667	0.666666666666667	0.666666666666667	1	0	1	0.666666666666667	0.666666666666667	0.333333333333333	1	0.666666666666667	0.666666666666667	1	0.666666666666667	n/a	n/a	n/a
87.058	3	0.333333333333333	0.333333333333333	0.333333333333333	0	1	0	0	0.333333333333333	0.333333333333333	0.666666666666667	0.333333333333333	0	0.333333333333333	0	0.666666666666667	0.333333333333333	1	0	0.333333333333333	0	1	0.666666666666667	0.333333333333333	0.666666666666667	0.666666666666667	0.333333333333333	1	0	0	1	1	0.666666666666667	0.666666666666667	1	0.666666666666667	0	0.666666666666667	0.333333333333333	0.333333333333333	0.333333333333333	1	0.666666666666667	0	0.333333333333333	0.666666666666667	0	0.333333333333333	0	n/a	n/a	n/a
90.093	3	1	0.666666666666667	0.333333333333333	0	0.333333333333333	0.333333333333333	0.666666666666667	0	0.333333333333333	0.666666666666667	0	1	1	0.333333333333333	0	0	0.333333333333333	1	0	1	0.666666666666667	0.333333333333333	0	0	1	0	1	0.666666666666667	0.666666666666667	0	0.666666666666667	1	1	1	1	0.333333333333333	1	1	1	0.666666666666667	1	0.666666666666667	0.333333333333333	0	0.333333333333333	0.666666666666667	0.333333333333333	0	n/a	n/a	n/a
93.127	3	0.666666666666667	0.333333333333333	0.333333333333333	1	1	0.333333333333333	0.666666666666667	0	0.333333333333333	0.666666666666667	1	0.666666666666667	1	1	0	1	0.333333333333333	1	0.666666666666667	0.333333333333333	0.666666666666667	0.666666666666667	0.666666666666667	0.333333333333333	0.333333333333333	0	1	1	1	1	0.666666666666667	0	1	0.333333333333333	0.333333333333333	0	0.333333333333333	0.666666666666667	0.333333333333333	0	0.666666666666667	0.666666666666667	1	0.666666666666667	0	0	1	1	n/a	n/a	n/a
96.045	3	0.666666666666667	1	0	0	0	1	0.333333333333333	0	0.333333333333333	0.333333333333333	0.333333333333333	0	0	0	1	0.666666666666667	0.333333333333333	0	1	0	0.666666666666667	0.666666666666667	0	0.333333333333333	0.333333333333333	0	1	0.666666666666667	1	0	0.333333333333333	0.333333333333333	0.333333333333333	0	0.333333333333333	1	0.333333333333333	0.333333333333333	0.666666666666667	0.333333333333333	1	0	0.333333333333333	0	0.333333333333333	0.666666666666667	0.333333333333333	0.333333333333333	n/a	n/a	n/a
99.079	3	0.333333333333333	0.333333333333333	0	0.333333333333333	0.666666666666667	0.333333333333333	0	0	1	0.333333333333333	0.666666666666667	0.333333333333333	1	0	0.333333333333333	1	1	0.666666666666667	0.333333333333333	0.333333333333333	0	0	1	0.666666666666667	1	0	0.333333333333333	0	0	0.666666666666667	0.666666666666667	0.666666666666667	0	0.333333333333333	0.666666666666667	1	0.333333333333333	0	0.333333333333333	0.333333333333333	0.333333333333333	1	0.333333333333333	1	0.333333333333333	0.333333333333333	0.333333333333333	0.666666666666667	n/a	n/a	n/a
102.114	3	1	0.333333333333333	0.333333333333333	0.333333333333333	0	0	0.666666666666667	0.666666666666667	1	0	0	0.333333333333333	0.666666666666667	1	0.666666666666667	0	0	0	0.666666666666667	0	0.666666666666667	0.666666666666667	0.333333333333333	1	0.333333333333333	1	1	0.666666666666667	1	0	1	0	0	0.333333333333333	1	0.666666666666667	1	1	0.666666666666667	0.333333333333333	0	0.666666666666667	0.333333333333333	0.666666666666667	0	1	0.333333333333333	1	n/a	n/a	n/a
105.149	3	0.666666666666667	1	0.333333333333333	0.666666666666667	1	0.666666666666667	0.333333333333333	1	0.333333333333333	1	0	0	0.666666666666667	0.666666666666667	0	0.333333333333333	0.333333333333333	0.666666666666667	0.666666666666667	0.333333333333333	1	0.333333333333333	1	0.333333333333333	1	0.666666666666667	0.333333333333333	0.333333333333333	0.333333333333333	0	0	0	1	0	1	0.666666666666667	0.666666666666667	1	0.666666666666667	0.666666666666667	0.333333333333333	0.666666666666667	0.666666666666667	0.333333333333333	1	0.666666666666667	1	0.666666666666667	n/a	n/a	n/a
108.067	3	0	1	0.666666666666667	0.333333333333333	1	1	0.666666666666667	1	1	0.333333333333333	1	0	1	1	1	0.666666666666667	0.666666666666667	0.666666666666667	0.333333333333333	0	0.333333333333333	0.666666666666667	0	1	0	0	0.333333333333333	1	0	0.666666666666667	1	1	1	0	0.666666666666667	0.333333333333333	1	0.333333333333333	0	0.666666666666667	1	0.333333333333333	1	0.666666666666667	0	0	0	1	n/a	n/a	n/a
111.101	3	0.333333333333333	0	0	0.666666666666667	1	0.333333333333333	0.333333333333333	0.333333333333333	1	1	1	1	0.333333333333333	1	0	1	0	0.666666666666667	1	0.666666666666667	0	0.333333333333333	0	1	0.666666666666667	0	0.666666666666667	0.666666666666667	0.333333333333333	0.333333333333333	1	0.666666666666667	0	0.666666666666667	1	0.333333333333333	0.666666666666667	0.333333333333333	1	0.666666666666667	1	0	0	1	0.333333333333333	0.333333333333333	1	0	n/a	n/a	n/a
114.136	3	1	0.666666666666667	0	0	0.333333333333333	0.333333333333333	0.666666666666667	0.333333333333333	0	0.666666666666667	0.666666666666667	0.333333333333333	1	1	0	0.333333333333333	0	1	1	0	1	0.333333333333333	1	0	0.666666666666667	0	0.333333333333333	1	0.666666666666667	0.333333333333333	0	0	0.666666666666667	1	0.333333333333333	0.666666666666667	0	0.666666666666667	0	0.333333333333333	1	1	0.333333333333333	0	0.333333333333333	1	0.333333333333333	0.666666666666667	n/a	n/a	n/a
117.054	3	0	0.666666666666667	0.666666666666667	1	0	0.333333333333333	0	0	0.333333333333333	0	0.333333333333333	0.333333333333333	0	0	0	0.666666666666667	1	1	0.333333333333333	0.333333333333333	1	0.666666666666667	0	0.333333333333333	1	0.666666666666667	1	1	0.333333333333333	0	0	0	0.666666666666667	1	0	0.333333333333333	0.666666666666667	0.666666666666667	0.666666666666667	0.666666666666667	1	0.333333333333333	1	1	1	0.333333333333333	0.333333333333333	0.666666666666667	n/a	n/a	n/a
120.088	3	0.333333333333333	0.333333333333333	0	0.666666666666667	0.666666666666667	1	0.333333333333333	1	0.333333333333333	0.333333333333333	0.333333333333333	1	0.666666666666667	0	0	0.333333333333333	0.333333333333333	0.333333333333333	0	0.666666666666667	0.333333333333333	0.666666666666667	0.666666666666667	1	1	0.333333333333333	0.333333333333333	1	0	1	0	0.666666666666667	0.666666666666667	0.666666666666667	0	0.666666666666667	0	0.666666666666667	0.666666666666667	0.333333333333333	0	0	0	0	0.666666666666667	0.333333333333333	0.333333333333333	0.666666666666667	n/a	n/a	n/a
123.123	3	1	0	0.666666666666667	0	0.666666666666667	0.333333333333333	1	0.666666666666667	0.666666666666667	0	0	1	0.333333333333333	0.666666666666667	1	0.666666666666667	0.333333333333333	0.333333333333333	0.333333333333333	1	1	1	0.333333333333333	0.666666666666667	1	0	0.666666666666667	0	0	0.666666666666667	0.333333333333333	0	0	0.666666666666667	0.333333333333333	0.666666666666667	1	0.666666666666667	0.333333333333333	1	0.666666666666667	0.333333333333333	0.333333333333333	0.333333333333333	0	1	0	0.666666666666667	n/a	n/a	n/a
126.157	3	0.666666666666667	0.333333333333333	0.333333333333333	0.666666666666667	1	0.666666666666667	0.666666666666667	0.666666666666667	0.666666666666667	0	0.333333333333333	0.333333333333333	1	0.333333333333333	1	0	0.333333333333333	0.666666666666667	0.666666666666667	0.333333333333333	0.666666666666667	0.333333333333333	0.333333333333333	0	1	0	0.333333333333333	0	0	1	0	0.333333333333333	0.333333333333333	1	0.333333333333333	0.333333333333333	0	0.666666666666667	1	0	0.333333333333333	0.333333333333333	0	1	0.333333333333333	1	0	1	n/a	n/a	n/a
129.075	3	0.333333333333333	0	1	0	0	1	0.666666666666667	0.666666666666667	0.333333333333333	0.333333333333333	1	1	1	1	0.666666666666667	0	0.333333333333333	0.666666666666667	0	1	0.666666666666667	0	0.666666666666667	0.333333333333333	0.666666666666667	0	0.666666666666667	0.333333333333333	0	0.333333333333333	0	0.333333333333333	0.333333333333333	0.666666666666667	0.333333333333333	1	0.333333333333333	0	1	0.333333333333333	0.333333333333333	0.333333333333333	0.666666666666667	0.333333333333333	1	0.333333333333333	0.666666666666667	0	n/a	n/a	n/a
132.11	3	1	1	0	1	1	0.333333333333333	0	1	0.333333333333333	0.666666666666667	0.333333333333333	0.333333333333333	1	1	0.333333333333333	0.666666666666667	0	0	1	0	0	0.666666666666667	0.666666666666667	0.666666666666667	0.666666666666667	1	1	1	0.666666666666667	0	1	0	0	0.333333333333333	0.666666666666667	0.333333333333333	0.666666666666667	0.333333333333333	1	0.333333333333333	0.666666666666667	0.666666666666667	0.666666666666667	0.666666666666667	1	0	0.333333333333333	1	n/a	n/a	n/a
135.145	3	0	0.333333333333333	0.333333333333333	1	0.666666666666667	0.333333333333333	1	0	0	0.333333333333333	0.666666666666667	1	0.333333333333333	0	0.666666666666667	0	0	1	0.333333333333333	0.333333333333333	0.333333333333333	0.333333333333333	0.666666666666667	1	1	0.333333333333333	1	0.666666666666667	0.333333333333333	0.333333333333333	0	0.333333333333333	0.666666666666667	0.333333333333333	0	0.666666666666667	0.666666666666667	0	1	0.666666666666667	0.666666666666667	0.666666666666667	0.666666666666667	0.333333333333333	1	1	0.666666666666667	0.666666666666667	n/a	n/a	n/a
138.063	3	0	0	0.333333333333333	1	0	1	1	0.666666666666667	1	0.666666666666667	0.333333333333333	0	0	0.666666666666667	0.333333333333333	0.333333333333333	0	0.666666666666667	0.666666666666667	0.666666666666667	1	1	0.333333333333333	1	0	0.666666666666667	0.666666666666667	0.333333333333333	0.333333333333333	1	0.666666666666667	0	0.666666666666667	0	0.666666666666667	1	1	0.333333333333333	0	1	1	0.666666666666667	0	0	0.333333333333333	0.333333333333333	1	0.666666666666667	n/a	n/a	n/a
141.097	3	0.333333333333333	0.666666666666667	0.333333333333333	0	0	0.666666666666667	0	0	0.333333333333333	1	0	0.333333333333333	1	1	0.333333333333333	1	1	0	1	0.333333333333333	1	1	0.666666666666667	0.333333333333333	1	0	0	0.666666666666667	0	0.666666666666667	0.666666666666667	0	1	0.666666666666667	1	1	1	1	0	0.333333333333333	0.333333333333333	0.333333333333333	1	0.666666666666667	0.333333333333333	0.333333333333333	1	0.333333333333333	n/a	n/a	n/a
144.131	3	0.333333333333333	0.333333333333333	0.333333333333333	0.333333333333333	1	1	0.333333333333333	0	0.333333333333333	0.333333333333333	0.333333333333333	1	0.666666666666667	0.333333333333333	1	0.666666666666667	0.666666666666667	1	0	0	0.333333333333333	1	0.666666666666667	0.666666666666667	0.333333333333333	0	0.333333333333333	0.333333333333333	0	0.333333333333333	1	0.333333333333333	0.333333333333333	0	0.666666666666667	0.666666666666667	0.666666666666667	0	1	1	0	1	0.333333333333333	0.666666666666667	0.666666666666667	0	0.666666666666667	0.333333333333333	n/a	n/a	n/a
147.049	3	0.333333333333333	1	1	0.333333333333333	0.333333333333333	0.666666666666667	0	0.666666666666667	0.666666666666667	0.666666666666667	0	0	0.333333333333333	0.666666666666667	0	1	0.333333333333333	0	0.333333333333333	0.333333333333333	0.666666666666667	1	1	0.333333333333333	0.666666666666667	0.666666666666667	0.333333333333333	0.333333333333333	1	1	0	0.666666666666667	0	0.333333333333333	1	1	0	0.666666666666667	0.333333333333333	0	1	1	0.666666666666667	1	0.666666666666667	1	1	0.666666666666667	n/a	n/a	n/a
150.084	3	1	0.333333333333333	0.333333333333333	0	1	0.333333333333333	0.666666666666667	0.666666666666667	1	0	0	1	1	1	0.333333333333333	0	0	0.333333333333333	0.333333333333333	0.666666666666667	0.333333333333333	0	0.333333333333333	0.333333333333333	0.666666666666667	1	1	0.666666666666667	1	1	0.333333333333333	0.666666666666667	0.666666666666667	0	0.666666666666667	1	0	0.666666666666667	0.333333333333333	0	0	0.666666666666667	0.333333333333333	0.333333333333333	0.333333333333333	0.666666666666667	0	0.333333333333333	n/a	n/a	n/a
153.118	3	0.666666666666667	1	0.666666666666667	1	0.666666666666667	0.666666666666667	0	0.666666666666667	0	1	0.333333333333333	1	1	1	0.666666666666667	0.666666666666667	0	1	0.333333333333333	0	0.666666666666667	0.333333333333333	0	1	0	0.333333333333333	0.666666666666667	0.333333333333333	0	0	0	0.333333333333333	1	0.333333333333333	1	1	1	0.666666666666667	1	0.666666666666667	0.666666666666667	0	1	0.333333333333333	1	1	0	0	n/a	n/a	n/a
156.152	3	1	0.333333333333333	0.666666666666667	0.666666666666667	0	0.333333333333333	1	0.666666666666667	0.666666666666667	0.333333333333333	0.333333333333333	0	0.333333333333333	0.666666666666667	1	0.666666666666667	0.666666666666667	0.333333333333333	0.666666666666667	0.666666666666667	1	0.333333333333333	1	0.333333333333333	0.333333333333333	0	1	0.333333333333333	0.666666666666667	1	0.666666666666667	0	0.666666666666667	0.666666666666667	0	0.333333333333333	0.666666666666667	0.333333333333333	1	0	0	1	1	0.333333333333333	0.666666666666667	0	0	0.666666666666667	n/a	n/a	n/a
159.07	3	1	1	0	0.666666666666667	0.333333333333333	0	0	1	1	1	0.666666666666667	0.666666666666667	0.333333333333333	1	1	0.333333333333333	0.333333333333333	1	0	0	0.666666666666667	0.666666666666667	1	1	0.666666666666667	0	1	0.333333333333333	0.333333333333333	0.333333333333333	0	0.666666666666667	0	1	0.666666666666667	0.333333333333333	1	0.333333333333333	0.666666666666667	0.333333333333333	0.666666666666667	0.333333333333333	0	0	0	1	0.333333333333333	0.666666666666667	n/a	n/a	n/a
162.106	3	0	1	0	0.666666666666667	0.666666666666667	0.333333333333333	1	0.666666666666667	0.333333333333333	0	0.333333333333333	0	1	0	0.666666666666667	0.333333333333333	1	0.666666666666667	0.333333333333333	0.333333333333333	0.333333333333333	1	0	1	1	1	0	1	0.666666666666667	0.666666666666667	0.666666666666667	0.333333333333333	1	1	0.666666666666667	0	0	0.666666666666667	0.333333333333333	0	1	0.666666666666667	1	0.666666666666667	1	0.666666666666667	0.333333333333333	0	n/a	n/a	n/a
165.14	3	0.666666666666667	0.333333333333333	0.333333333333333	0.666666666666667	0.333333333333333	0.666666666666667	0.666666666666667	0.333333333333333	1	0.666666666666667	0.333333333333333	0.333333333333333	1	0.666666666666667	0	0.333333333333333	0.666666666666667	0	0	0.333333333333333	0.666666666666667	1	0.666666666666667	1	0	0.666666666666667	0.666666666666667	0.666666666666667	1	0	0.666666666666667	1	0.333333333333333	0	1	0.333333333333333	1	1	0.333333333333333	0.666666666666667	0	0.666666666666667	1	0.333333333333333	0.666666666666667	0.666666666666667	0	0.666666666666667	n/a	n/a	n/a
168.058	3	0	1	0.333333333333333	0.333333333333333	0.333333333333333	0.666666666666667	0.666666666666667	1	1	0.333333333333333	0.666666666666667	0	1	0.666666666666667	0.333333333333333	1	0.333333333333333	0.333333333333333	0	1	0.666666666666667	0.666666666666667	0	1	1	1	1	1	0.666666666666667	0.666666666666667	0	1	1	1	0.666666666666667	1	1	0	1	0	0.666666666666667	0	0	0.666666666666667	0	0.333333333333333	1	0.666666666666667	n/a	n/a	n/a
171.092	3	1	0.666666666666667	0.333333333333333	0	0.333333333333333	0	0.333333333333333	0.333333333333333	1	0.333333333333333	0	0.333333333333333	1	0.333333333333333	0.666666666666667	1	0.333333333333333	0.333333333333333	0.666666666666667	0.666666666666667	1	0.666666666666667	0.333333333333333	0.333333333333333	0.666666666666667	0.666666666666667	0.333333333333333	0	0	0.666666666666667	0	0.333333333333333	0	0.333333333333333	0	1	1	0.333333333333333	1	0	1	0.333333333333333	0.333333333333333	0.666666666666667	0	0	0.333333333333333	1	n/a	n/a	n/a
174.127	3	0	0	0.666666666666667	0.666666666666667	0.333333333333333	0	0	1	0	0.333333333333333	0.666666666666667	0.666666666666667	0	0	0.333333333333333	0.333333333333333	0.666666666666667	0.333333333333333	0.333333333333333	0.333333333333333	0.666666666666667	0.333333333333333	0	0	0.333333333333333	0	0	0.333333333333333	1	0.666666666666667	0	0.333333333333333	0	0.666666666666667	1	1	0.666666666666667	0.333333333333333	0	1	0	0.333333333333333	0.333333333333333	1	0.333333333333333	0.333333333333333	0	0.666666666666667	n/a	n/a	n/a
177.045	3	0.666666666666667	1	0.333333333333333	0.333333333333333	0.333333333333333	0.333333333333333	0	0.666666666666667	0	0.666666666666667	0.666666666666667	0	0	1	0	0.666666666666667	0.666666666666667	0.666666666666667	0	0.666666666666667	1	0.333333333333333	1	1	1	0.666666666666667	0.333333333333333	1	0.666666666666667	0.333333333333333	0.333333333333333	0.666666666666667	1	1	0.666666666666667	1	0.333333333333333	0.666666666666667	0.333333333333333	0	0	1	0.666666666666667	0.333333333333333	0.333333333333333	0.333333333333333	1	1	n/a	n/a	n/a
180.079	3	0	1	0	0.666666666666667	0.666666666666667	0.333333333333333	1	0.333333333333333	1	0.333333333333333	0.666666666666667	1	0.666666666666667	0.333333333333333	0	0.666666666666667	1	1	0.666666666666667	0.666666666666667	1	1	0.666666666666667	0	0.333333333333333	0.333333333333333	0.333333333333333	0.666666666666667	0.333333333333333	0	1	0.333333333333333	0.666666666666667	0	0.333333333333333	0.333333333333333	0	0.666666666666667	1	0.666666666666667	0	0.333333333333333	1	1	1	0.666666666666667	0	1	n/a	n/a	n/a
183.114	3	0	1	0	0.333333333333333	0.666666666666667	1	0	0	0	1	0.333333333333333	1	0	1	1	0.333333333333333	0	0.666666666666667	0	0.666666666666667	1	0	0	0.666666666666667	0	0.666666666666667	0.333333333333333	0.666666666666667	0	0.333333333333333	1	0.666666666666667	0.333333333333333	1	0	0.666666666666667	0.666666666666667	0	0	0.333333333333333	0.333333333333333	1	0.666666666666667	1	0	0	0.666666666666667	0.333333333333333	n/a	n/a	n/a
186.149	3	0.333333333333333	0.333333333333333	0.666666666666667	0	1	1	0.666666666666667	0.333333333333333	0	0	0.333333333333333	1	0.333333333333333	0.333333333333333	0.333333333333333	0.666666666666667	0.666666666666667	1	0.333333333333333	0	1	0.333333333333333	0	0.333333333333333	0	0.333333333333333	1	0	0.333333333333333	1	0.333333333333333	0.333333333333333	1	0	0	0.333333333333333	1	1	0	0.666666666666667	1	0.666666666666667	0.333333333333333	0.333333333333333	0.333333333333333	1	1	0	n/a	n/a	n/a
189.067	3	0	0	0	0	0.333333333333333	0.333333333333333	1	0	0.666666666666667	1	0.333333333333333	0	0	0	0.333333333333333	0.666666666666667	0.666666666666667	0.666666666666667	0.666666666666667	0.666666666666667	0.666666666666667	0	0.333333333333333	1	0	0	0.333333333333333	0.666666666666667	0	0	1	1	0.333333333333333	1	0	0	0	1	0	0	0.333333333333333	0.666666666666667	0.333333333333333	1	0.666666666666667	1	0.666666666666667	0	n/a	n/a	n/a
192.101	3	0	0.333333333333333	0.333333333333333	0.333333333333333	0.666666666666667	0	1	0.666666666666667	0.333333333333333	0.666666666666667	0.333333333333333	1	0.666666666666667	0.666666666666667	1	0.333333333333333	1	0.666666666666667	0.333333333333333	1	0.333333333333333	0.666666666666667	0.333333333333333	0	0.666666666666667	1	0	1	0.666666666666667	0.333333333333333	0	0	0.333333333333333	0.666666666666667	1	0.333333333333333	1	0.333333333333333	0.333333333333333	0.666666666666667	0.666666666666667	0.666666666666667	0	1	0	0	1	1	n/a	n/a	n/a
195.136	3	0.333333333333333	0	1	0	0.666666666666667	1	0	1	1	1	0.333333333333333	0.333333333333333	0.666666666666667	0	0.333333333333333	0.333333333333333	0.333333333333333	0	0	0.666666666666667	0.333333333333333	0	0.333333333333333	0	1	0.333333333333333	0	0.333333333333333	0	0.666666666666667	1	0.666666666666667	0	0.333333333333333	1	0.666666666666667	0	1	0.666666666666667	0	0.333333333333333	0	0.666666666666667	1	1	0.666666666666667	0	0.333333333333333	n/a	n/a	n/a
198.054	3	0	0.333333333333333	0.666666666666667	1	0.666666666666667	1	0.666666666666667	1	0.333333333333333	0.333333333333333	0.666666666666667	1	0.666666666666667	0.333333333333333	0.333333333333333	0.666666666666667	0	0.666666666666667	0	0.666666666666667	0.666666666666667	0.333333333333333	0.333333333333333	0.333333333333333	0	0.333333333333333	0	0.666666666666667	0.333333333333333	1	0.333333333333333	1	1	0	0	0.666666666666667	0	1	0.333333333333333	0.666666666666667	0.666666666666667	0	0	0.333333333333333	1	0	1	0.333333333333333	n/a	n/a	n/a
201.088	3	1	1	0.666666666666667	1	1	0.666666666666667	1	1	1	0.333333333333333	0	1	0.333333333333333	1	0.666666666666667	1	0.666666666666667	0	0.333333333333333	0.666666666666667	0.333333333333333	0.333333333333333	0.333333333333333	0	0.666666666666667	0.333333333333333	0	0.333333333333333	0	0.333333333333333	1	1	0.333333333333333	0.666666666666667	1	0	0.666666666666667	1	1	1	0	0.333333333333333	0	0.666666666666667	0	0.333333333333333	0	0	n/a	n/a	n/a
204.122	3	0	0	0.333333333333333	0.333333333333333	0.666666666666667	0.333333333333333	0.333333333333333	0.666666666666667	0.333333333333333	1	0.333333333333333	1	0	0.666666666666667	0.333333333333333	0.333333333333333	0.333333333333333	0	1	0.666666666666667	1	0.666666666666667	0.666666666666667	0	0.666666666666667	0.666666666666667	1	1	1	0.333333333333333	0.666666666666667	0.666666666666667	0	1	1	0.333333333333333	1	1	0	1	1	0.666666666666667	0.666666666666667	0.666666666666667	1	0.333333333333333	0	0	n/a	n/a	n/a
207.157	3	0.666666666666667	0.333333333333333	0.333333333333333	0	0.333333333333333	0	0.666666666666667	1	1	1	0	0	0.666666666666667	0.333333333333333	0.333333333333333	0.333333333333333	0.666666666666667	1	1	0	0.666666666666667	0.333333333333333	0	0.333333333333333	0	0.666666666666667	0	0	0.666666666666667	0.333333333333333	0	0	0.333333333333333	0.666666666666667	0.666666666666667	1	0.666666666666667	0	0.333333333333333	0	0	0.333333333333333	0.333333333333333	1	0.666666666666667	0	0.333333333333333	0.333333333333333	n/a	n/a	n/a
210.075	3	1	0.666666666666667	0	1	1	0.666666666666667	0	0.666666666666667	0.666666666666667	0	1	0	0.333333333333333	1	0	0.333333333333333	0	0.666666666666667	0	0.333333333333333	0.333333333333333	0.666666666666667	0	0.333333333333333	0	1	1	0.333333333333333	0.666666666666667	1	1	0.333333333333333	0	1	0	0.333333333333333	0	0.333333333333333	0	0.666666666666667	1	0.666666666666667	0.666666666666667	1	1	0.333333333333333	1	0.333333333333333	n/a	n/a	n/a
213.092	3	0.333333333333333	0.666666666666667	1	1	0.333333333333333	1	0	1	0.666666666666667	0	0	0	0.666666666666667	1	1	0	0.333333333333333	0.666666666666667	0.333333333333333	1	0	0.333333333333333	1	1	0.666666666666667	1	1	1	1	0	1	1	0	1	0	1	0.333333333333333	0.666666666666667	0	0.333333333333333	1	0.333333333333333	0.333333333333333	0.333333333333333	1	1	0.333333333333333	0	n/a	n/a	n/a
216.109	3	1	0.666666666666667	0	1	0.666666666666667	1	0	0.666666666666667	1	0	0.666666666666667	0.333333333333333	1	1	1	0	1	0.333333333333333	1	0.333333333333333	1	1	0	0	0.666666666666667	1	0.333333333333333	0.333333333333333	1	0.333333333333333	0	0.333333333333333	0	0.666666666666667	0.333333333333333	0.333333333333333	1	0.333333333333333	1	0	1	0	1	0.666666666666667	0	1	0.666666666666667	1	n/a	n/a	n/a
219.146	3	0	1	0.666666666666667	0.666666666666667	0.333333333333333	0	0.333333333333333	0.333333333333333	1	0.666666666666667	0.666666666666667	0.333333333333333	0.666666666666667	0	1	1	0.333333333333333	0	0	0	0.666666666666667	1	0.333333333333333	0	1	0.333333333333333	0.333333333333333	0	1	0	1	0.666666666666667	0.666666666666667	0.333333333333333	0.333333333333333	0.333333333333333	1	0	0.666666666666667	0.666666666666667	0.333333333333333	0.333333333333333	0.333333333333333	0	0.666666666666667	0	0.666666666666667	0.333333333333333	n/a	n/a	n/a
222.064	3	0.333333333333333	1	0.333333333333333	1	0.333333333333333	1	0.333333333333333	0.333333333333333	0.333333333333333	0	1	0.666666666666667	1	1	0.333333333333333	0	0.666666666666667	0	0	0	0.666666666666667	0.333333333333333	1	0.666666666666667	0	1	0	1	0.666666666666667	1	1	0	0	1	1	0.333333333333333	0.666666666666667	0.666666666666667	0.333333333333333	1	0.333333333333333	0.666666666666667	0	0.333333333333333	0.666666666666667	1	0.666666666666667	0	n/a	n/a	n/a
225.098	3	0	0	0.666666666666667	0.333333333333333	0.666666666666667	1	0.333333333333333	0.666666666666667	0.666666666666667	0.666666666666667	0.333333333333333	1	0	0	0.666666666666667	0.333333333333333	0	0	0.333333333333333	0.333333333333333	1	0.666666666666667	0.333333333333333	0.666666666666667	0	0.666666666666667	1	0	0.666666666666667	0	1	0.333333333333333	0.333333333333333	0.333333333333333	1	1	1	1	0	1	0	0.333333333333333	0.333333333333333	0.666666666666667	0	1	0.333333333333333	0	n/a	n/a	n/a
228.133	3	1	1	0	0.666666666666667	0.333333333333333	1	0.333333333333333	0	0.666666666666667	0.333333333333333	1	0.666666666666667	0	0.333333333333333	1	0	0.666666666666667	0.333333333333333	0	0	0.333333333333333	1	0.333333333333333	0.666666666666667	0.666666666666667	0	0.333333333333333	0	0.666666666666667	0.333333333333333	1	0.666666666666667	0	0	0.666666666666667	0.333333333333333	0	1	0.333333333333333	0.666666666666667	1	0.333333333333333	1	0	0	0.333333333333333	0	0	n/a	n/a	n/a
231.05	3	1	0.333333333333333	1	0.666666666666667	0	0.333333333333333	0.666666666666667	1	1	0	0.666666666666667	0.666666666666667	1	0.666666666666667	1	0.333333333333333	0.333333333333333	0.333333333333333	0.333333333333333	0	0.333333333333333	0	0.333333333333333	1	1	0	0.333333333333333	0.666666666666667	0.333333333333333	0	0.666666666666667	1	0.333333333333333	0	1	0	0	1	0.666666666666667	0	1	0.666666666666667	1	0	0.666666666666667	0.333333333333333	0	0.666666666666667	n/a	n/a	n/a
234.085	3	1	1	1	0.666666666666667	0	1	1	0	0.666666666666667	0.666666666666667	1	0	0.666666666666667	0	0.333333333333333	0.666666666666667	0	0	1	0.333333333333333	0.666666666666667	1	1	0.666666666666667	1	1	0.333333333333333	0.666666666666667	0	0.333333333333333	0.666666666666667	1	1	1	1	1	0	0.333333333333333	1	0	0	0	0.333333333333333	0.333333333333333	0.666666666666667	0	0	1	n/a	n/a	n/a
237.119	3	0.333333333333333	0.333333333333333	1	1	0.333333333333333	0.666666666666667	0.666666666666667	0	1	0	0.333333333333333	1	0	0.333333333333333	1	0.666666666666667	0.666666666666667	0	1	1	0	0.666666666666667	1	0.666666666666667	0.333333333333333	0	0.666666666666667	1	0.333333333333333	0	0.666666666666667	0.333333333333333	0.333333333333333	0.333333333333333	0.333333333333333	0.333333333333333	1	1	0.333333333333333	1	1	0.333333333333333	1	0.666666666666667	0.666666666666667	0.333333333333333	0	0.666666666666667	n/a	n/a	n/a
240.154	3	0.333333333333333	0.333333333333333	0.333333333333333	0	1	0.666666666666667	0.666666666666667	0.666666666666667	0	0.333333333333333	0.666666666666667	0.666666666666667	0.333333333333333	0.333333333333333	1	1	0	1	0.666666666666667	0	0	0.666666666666667	0	0	1	0.333333333333333	0	0	0.666666666666667	0	0.333333333333333	1	0	0.666666666666667	0.666666666666667	0.666666666666667	0	0.333333333333333	0.666666666666667	0.666666666666667	0.666666666666667	0	0.666666666666667	1	1	0.333333333333333	1	0.333333333333333	n/a	n/a	n/a
243.072	3	0.666666666666667	0.333333333333333	1	0	0.333333333333333	0.666666666666667	0.666666666666667	0.666666666666667	0	0	0.666666666666667	0.666666666666667	0.666666666666667	0	1	1	0	0.666666666666667	0.666666666666667	0.666666666666667	0.666666666666667	0	0.666666666666667	0.666666666666667	0.333333333333333	0	0.333333333333333	1	1	0	0.333333333333333	1	0.333333333333333	0	0	0	1	0.666666666666667	0	0	0	1	0	1	0	0	0	1	n/a	n/a	n/a
246.107	3	0.333333333333333	0.333333333333333	1	1	1	0.666666666666667	1	0	0	0.666666666666667	0.333333333333333	0.666666666666667	0	1	1	0.333333333333333	0	0.333333333333333	0.666666666666667	0.333333333333333	0.666666666666667	1	1	0.666666666666667	0.333333333333333	0	0	0.333333333333333	0.333333333333333	0	1	0.666666666666667	0.666666666666667	0	0.333333333333333	0.333333333333333	0.666666666666667	0.666666666666667	0	0	0	0	0	0	0.666666666666667	1	0.333333333333333	0	n/a	n/a	n/a
249.141	3	0.666666666666667	0	0.333333333333333	0.333333333333333	1	0.666666666666667	1	0.333333333333333	0.666666666666667	1	0.666666666666667	0	0.333333333333333	0.666666666666667	0.333333333333333	1	1	0.333333333333333	0	0.666666666666667	1	0.333333333333333	1	1	0	0.666666666666667	0.333333333333333	0.666666666666667	0.333333333333333	0.666666666666667	0.333333333333333	0.666666666666667	0.666666666666667	0	0.666666666666667	0.666666666666667	0	0.333333333333333	1	0.333333333333333	1	1	1	0.333333333333333	0.333333333333333	0	0	1	n/a	n/a	n/a
252.059	3	0	0.333333333333333	0.666666666666667	0	0.333333333333333	0	0.333333333333333	0	0	0.666666666666667	0	1	0.333333333333333	0.666666666666667	0.333333333333333	1	0	0	0.333333333333333	0.333333333333333	0.333333333333333	0.333333333333333	0	0	0.333333333333333	0.666666666666667	1	0	0	0	0.666666666666667	0	1	0.333333333333333	1	0	0	1	1	0	0.333333333333333	1	1	0.666666666666667	1	0	1	0.333333333333333	n/a	n/a	n/a
255.094	3	0	0.333333333333333	0	0.333333333333333	0.333333333333333	0.333333333333333	1	1	0.666666666666667	0	0.666666666666667	0.333333333333333	0	1	0	0	0.333333333333333	0.333333333333333	0.333333333333333	0.333333333333333	1	1	0	1	0.333333333333333	0.333333333333333	0	0	0	0.333333333333333	0.666666666666667	0	0.333333333333333	0.666666666666667	0.666666666666667	0	0	0.333333333333333	1	0.333333333333333	0.333333333333333	0.333333333333333	1	0.666666666666667	0.333333333333333	1	0.666666666666667	0.666666666666667	n/a	n/a	n/a
258.128	3	0	0	0.333333333333333	1	0	1	0.666666666666667	0	0.666666666666667	1	0.333333333333333	1	1	0.333333333333333	0.333333333333333	0	0.333333333333333	0.333333333333333	1	1	0.333333333333333	0.666666666666667	0.333333333333333	1	0	0.666666666666667	0.333333333333333	0.333333333333333	0.333333333333333	0	1	0.333333333333333	0.666666666666667	0.333333333333333	0	1	0.333333333333333	1	0.333333333333333	1	1	0	1	0	0.333333333333333	0	1	0	n/a	n/a	n/a
261.046	3	0.333333333333333	1	0.333333333333333	0.333333333333333	0.666666666666667	1	0	1	0	0	0	0	1	0	0	1	0.666666666666667	0.666666666666667	1	1	0.666666666666667	0.666666666666667	0.333333333333333	0.333333333333333	0.666666666666667	0	0.666666666666667	0.666666666666667	0.666666666666667	0.333333333333333	1	1	0	0.666666666666667	0.333333333333333	1	1	0	0.666666666666667	0.333333333333333	1	1	0.666666666666667	0.666666666666667	1	0.333333333333333	0.666666666666667	0.333333333333333	n/a	n/a	n/a
264.08	3	0.666666666666667	0.333333333333333	0	0	0	0.333333333333333	0	0.666666666666667	1	0.666666666666667	0	0.666666666666667	0.333333333333333	0.666666666666667	0.333333333333333	0.333333333333333	0.333333333333333	0.333333333333333	0.666666666666667	1	0.666666666666667	0.666666666666667	0.666666666666667	0	0.333333333333333	1	0	0.666666666666667	0.333333333333333	0.666666666666667	0.333333333333333	1	0	0.666666666666667	1	0.666666666666667	0.666666666666667	0.666666666666667	0.666666666666667	1	1	0.666666666666667	0	0.666666666666667	0.666666666666667	0	0.333333333333333	0.333333333333333	n/a	n/a	n/a
267.115	3	1	0.666666666666667	0.333333333333333	0	0.333333333333333	0.666666666666667	1	0.333333333333333	0.333333333333333	0	0	0.666666666666667	0.666666666666667	1	0.666666666666667	1	1	1	0	1	0	0	1	0	0.666666666666667	1	0.666666666666667	0.666666666666667	0.666666666666667	0	0.333333333333333	0	0.333333333333333	1	1	0.333333333333333	0.333333333333333	0	0.666666666666667	0.666666666666667	0.333333333333333	0	0.333333333333333	0	0.666666666666667	0	0.333333333333333	0.666666666666667	n/a	n/a	n/a
270.15	3	0	0	0.333333333333333	0	0.333333333333333	0.666666666666667	0.666666666666667	0	0	0.666666666666667	0.666666666666667	0.666666666666667	0.333333333333333	1	0.666666666666667	0.333333333333333	0.333333333333333	1	0.333333333333333	0.333333333333333	0.666666666666667	1	0.333333333333333	0.666666666666667	0.666666666666667	0.333333333333333	1	0.666666666666667	0.333333333333333	0.333333333333333	1	1	0.666666666666667	1	0.333333333333333	0	0.333333333333333	1	0.333333333333333	0	1	0.666666666666667	1	0	0	0.333333333333333	0.666666666666667	1	n/a	n/a	n/a
273.068	3	0	0.333333333333333	1	1	0.666666666666667	0.333333333333333	0.666666666666667	1	1	1	0.666666666666667	0.333333333333333	0.333333333333333	1	0	0.333333333333333	1	1	0.333333333333333	1	0.333333333333333	1	0.333333333333333	0	0.333333333333333	0.333333333333333	0.666666666666667	0.666666666666667	0.333333333333333	0	0.333333333333333	1	0.666666666666667	1	0	0	0.333333333333333	0	0.666666666666667	0.333333333333333	1	0.333333333333333	0.666666666666667	0.666666666666667	0	0	1	0	n/a	n/a	n/a
276.102	3	0.666666666666667	0	0	0.333333333333333	0	0.666666666666667	1	1	0	0.666666666666667	1	0.666666666666667	0.666666666666667	1	0.333333333333333	1	0	0	0.333333333333333	0.333333333333333	0.666666666666667	0	1	1	0.333333333333333	0	1	0.333333333333333	0	1	0.333333333333333	0	0.333333333333333	0	1	0	0.333333333333333	0	1	0.666666666666667	0.666666666666667	1	1	1	0	0	0.666666666666667	1	n/a	n/a	n/a
279.137	3	1	0.666666666666667	0.666666666666667	0.666666666666667	0.666666666666667	1	0.666666666666667	0.333333333333333	1	0.666666666666667	0.666666666666667	1	0.666666666666667	0.666666666666667	0	0.333333333333333	0.666666666666667	0.333333333333333	0	0	0.666666666666667	0	0.333333333333333	0	1	0.666666666666667	0.666666666666667	1	0.666666666666667	0.666666666666667	0.333333333333333	0	1	0.666666666666667	0.666666666666667	0	0.333333333333333	0	0.666666666666667	0.666666666666667	0	0.666666666666667	0.666666666666667	0	1	1	1	0.333333333333333	n/a	n/a	n/a
282.055	3	0.666666666666667	0.666666666666667	0	1	0	1	0.666666666666667	0.666666666666667	0	0.333333333333333	0.333333333333333	0	0	0.666666666666667	0.666666666666667	1	0.666666666666667	1	1	1	0.333333333333333	1	0.333333333333333	0.333333333333333	0	0	0.333333333333333	0	0.666666666666667	0.333333333333333	0.333333333333333	0	0.333333333333333	0	0.333333333333333	1	0.666666666666667	0	0.666666666666667	1	0.333333333333333	0.333333333333333	0	0.333333333333333	0.333333333333333	1	1	0.333333333333333	n/a	n/a	n/a
285.089	3	0.333333333333333	0.666666666666667	0.666666666666667	1	0.666666666666667	0.666666666666667	0	0.666666666666667	0.333333333333333	0	1	0.666666666666667	0	0	0.666666666666667	0.333333333333333	0.333333333333333	0.666666666666667	0	0.333333333333333	0.333333333333333	0	0.666666666666667	0	1	1	1	0.666666666666667	0.666666666666667	0.333333333333333	0	0.666666666666667	1	1	0.666666666666667	0.333333333333333	0.333333333333333	0.666666666666667	1	0.666666666666667	0	0.666666666666667	0.333333333333333	0	0	1	1	1	n/a	n/a	n/a
288.124	3	1	1	0.666666666666667	1	0.666666666666667	0	0.333333333333333	1	1	1	0.666666666666667	0	0.333333333333333	0	1	0.666666666666667	0.333333333333333	1	0	1	0.333333333333333	0.666666666666667	0.333333333333333	1	0.333333333333333	1	1	0.333333333333333	0	0.333333333333333	1	0.333333333333333	0.666666666666667	0.666666666666667	0.333333333333333	0.333333333333333	0.333333333333333	0.333333333333333	0.666666666666667	0	0	1	0.333333333333333	0.666666666666667	0	0	0.333333333333333	1	n/a	n/a	n/a
291.158	3	1	0.333333333333333	0.333333333333333	0.333333333333333	1	0	0.333333333333333	0.333333333333333	0.666666666666667	0.333333333333333	0.666666666666667	0.666666666666667	1	0.666666666666667	1	1	0.333333333333333	0.666666666666667	0.333333333333333	0.666666666666667	0.333333333333333	0.333333333333333	1	0	0.333333333333333	0.666666666666667	0	0.666666666666667	0.666666666666667	0.333333333333333	0	1	0	1	0.666666666666667	0.666666666666667	1	0.333333333333333	1	1	1	0	0.666666666666667	1	0.666666666666667	0	0	1	n/a	n/a	n/a
294.076	3	0.333333333333333	0.666666666666667	0.333333333333333	0	1	0.333333333333333	0.666666666666667	0.333333333333333	0	0.333333333333333	0.333333333333333	0.333333333333333	0.333333333333333	1	0.666666666666667	1	0	0.333333333333333	0.666666666666667	1	0.333333333333333	0	1	0.333333333333333	0.333333333333333	1	1	0.666666666666667	0.666666666666667	0.666666666666667	0.333333333333333	0	0.666666666666667	0.333333333333333	0.666666666666667	0.333333333333333	0.333333333333333	0.333333333333333	0.333333333333333	0.666666666666667	0.666666666666667	1	0.333333333333333	0.666666666666667	0	0.333333333333333	0.666666666666667	1	n/a	n/a	n/a
297.11	3	1	1	1	0.333333333333333	1	1	0.666666666666667	0	1	0	0	1	0	0.333333333333333	1	1	0.666666666666667	0	0.666666666666667	0	1	0.666666666666667	0.333333333333333	1	0.333333333333333	0	0.666666666666667	0	0.333333333333333	0	0.666666666666667	0.333333333333333	0.666666666666667	0	1	0.333333333333333	1	0.666666666666667	1	0.333333333333333	0.333333333333333	0.666666666666667	0.666666666666667	0.333333333333333	0.333333333333333	0.333333333333333	0.333333333333333	0.333333333333333	n/a	n/a	n/a
300.146	3	0.333333333333333	0.666666666666667	0.333333333333333	0.333333333333333	1	0.666666666666667	0.333333333333333	0.333333333333333	0.333333333333333	0	0.333333333333333	0	0.666666666666667	0.333333333333333	0.666666666666667	0.666666666666667	0	0.666666666666667	0.666666666666667	0	0	1	0.666666666666667	0.333333333333333	0	0.666666666666667	0	1	1	0.333333333333333	0.666666666666667	1	0	1	1	1	0.333333333333333	1	0	0.333333333333333	1	0.666666666666667	1	1	0.333333333333333	0.333333333333333	0.666666666666667	0.333333333333333	n/a	n/a	n/a
303.064	3	0	0	0.333333333333333	1	0.666666666666667	0.333333333333333	0.333333333333333	0.333333333333333	1	0	1	0.333333333333333	0.666666666666667	0.333333333333333	0	0	0.666666666666667	0.333333333333333	1	1	0.666666666666667	0	0.333333333333333	0.666666666666667	1	0	0	0	0	0.666666666666667	0.333333333333333	0.333333333333333	0	0	0.666666666666667	0	0.666666666666667	0.666666666666667	0.333333333333333	0.333333333333333	0.666666666666667	0.666666666666667	0.333333333333333	0.666666666666667	0	0	0	0	n/a	n/a	n/a
306.098	3	0.666666666666667	0	0	0	1	0.333333333333333	0.333333333333333	0.333333333333333	0.666666666666667	0.333333333333333	0.666666666666667	0	0	1	0	0.666666666666667	0	0.333333333333333	1	1	0	0.333333333333333	0.666666666666667	1	0.333333333333333	0.333333333333333	0	0	0.333333333333333	1	0	0.333333333333333	0	0.666666666666667	0.333333333333333	0.333333333333333	0.666666666666667	0	0.666666666666667	1	1	1	1	0	0.333333333333333	0	1	1	n/a	n/a	n/a
309.132	3	0.333333333333333	0.666666666666667	0.333333333333333	0.666666666666667	1	0.666666666666667	0.666666666666667	1	0.333333333333333	1	0	0.333333333333333	0.333333333333333	1	0.666666666666667	0.666666666666667	0.666666666666667	0	0.666666666666667	0	0.666666666666667	0.333333333333333	0	0	1	0.666666666666667	0.666666666666667	0.333333333333333	0.333333333333333	1	1	0	0.333333333333333	0	0	0	0	0	0	1	0	1	0.666666666666667	0.333333333333333	0.333333333333333	0	1	0.666666666666667	n/a	n/a	n/a
312.05	3	1	0.333333333333333	0.666666666666667	0.333333333333333	0.333333333333333	0	0.333333333333333	0.666666666666667	0.666666666666667	0.666666666666667	0	0.333333333333333	1	0	0.333333333333333	0.333333333333333	0.666666666666667	0.666666666666667	0.333333333333333	0.333333333333333	0.666666666666667	0	0.333333333333333	0	0.333333333333333	0.666666666666667	0.666666666666667	0	0.333333333333333	0.333333333333333	0.333333333333333	1	0.333333333333333	0	0.666666666666667	1	1	1	0.333333333333333	0.666666666666667	0.333333333333333	0.333333333333333	0.666666666666667	1	0.666666666666667	1	1	1	n/a	n/a	n/a
0	0.8	n/a	n/a	n/a	n/a	n/a	n/a	n/a	n/a	n/a	n/a	n/a	n/a	n/a	n/a	n/a	n/a	n/a	n/a	n/a	n/a	n/a	n/a	n/a	n/a	n/a	n/a	n/a	n/a	n/a	n/a	n/a	n/a	n/a	n/a	n/a	n/a	n/a	n/a	n/a	n/a	n/a	n/a	n/a	n/a	n/a	n/a	n/a	n/a	7	n/a	n/a
1.6	0.8	n/a	n/a	n/a	n/a	n/a	n/a	n/a	n/a	n/a	n/a	n/a	n/a	n/a	n/a	n/a	n/a	n/a	n/a	n/a	n/a	n/a	n/a	n/a	n/a	n/a	n/a	n/a	n/a	n/a	n/a	n/a	n/a	n/a	n/a	n/a	n/a	n/a	n/a	n/a	n/a	n/a	n/a	n/a	n/a	n/a	n/a	n/a	n/a	5	n/a	n/a
3.2	0.8	n/a	n/a	n/a	n/a	n/a	n/a	n/a	n/a	n/a	n/a	n/a	n/a	n/a	n/a	n/a	n/a	n/a	n/a	n/a	n/a	n/a	n/a	n/a	n/a	n/a	n/a	n/a	n/a	n/a	n/a	n/a	n/a	n/a	n/a	n/a	n/a	n/a	n/a	n/a	n/a	n/a	n/a	n/a	n/a	n/a	n/a	n/a	n/a	7	n/a	n/a
4.8	0.8	n/a	n/a	n/a	n/a	n/a	n/a	n/a	n/a	n/a	n/a	n/a	n/a	n/a	n/a	n/a	n/a	n/a	n/a	n/a	n/a	n/a	n/a	n/a	n/a	n/a	n/a	n/a	n/a	n/a	n/a	n/a	n/a	n/a	n/a	n/a	n/a	n/a	n/a	n/a	n/a	n/a	n/a	n/a	n/a	n/a	n/a	n/a	n/a	5	n/a	n/a
6.4	0.8	n/a	n/a	n/a	n/a	n/a	n/a	n/a	n/a	n/a	n/a	n/a	n/a	n/a	n/a	n/a	n/a	n/a	n/a	n/a	n/a	n/a	n/a	n/a	n/a	n/a	n/a	n/a	n/a	n/a	n/a	n/a	n/a	n/a	n/a	n/a	n/a	n/a	n/a	n/a	n/a	n/a	n/a	n/a	n/a	n/a	n/a	n/a	n/a	5	n/a	n/a
8	0.8	n/a	n/a	n/a	n/a	n/a	n/a	n/a	n/a	n/a	n/a	n/a	n/a	n/a	n/a	n/a	n/a	n/a	n/a	n/a	n/a	n/a	n/a	n/a	n/a	n/a	n/a	n/a	n/a	n/a	n/a	n/a	n/a	n/a	n/a	n/a	n/a	n/a	n/a	n/a	n/a	n/a	n/a	n/a	n/a	n/a	n/a	n/a	n/a	7	n/a	n/a
9.6	0.8	n/a	n/a	n/a	n/a	n/a	n/a	n/a	n/a	n/a	n/a	n/a	n/a	n/a	n/a	n/a	n/a	n/a	n/a	n/a	n/a	n/a	n/a	n/a	n/a	n/a	n/a	n/a	n/a	n/a	n/a	n/a	n/a	n/a	n/a	n/a	n/a	n/a	n/a	n/a	n/a	n/a	n/a	n/a	n/a	n/a	n/a	n/a	n/a	5	n/a	n/a
11.2	0.8	n/a	n/a	n/a	n/a	n/a	n/a	n/a	n/a	n/a	n/a	n/a	n/a	n/a	n/a	n/a	n/a	n/a	n/a	n/a	n/a	n/a	n/a	n/a	n/a	n/a	n/a	n/a	n/a	n/a	n/a	n/a	n/a	n/a	n/a	n/a	n/a	n/a	n/a	n/a	n/a	n/a	n/a	n/a	n/a	n/a	n/a	n/a	n/a	5	n/a	n/a
12.8	0.8	n/a	n/a	n/a	n/a	n/a	n/a	n/a	n/a	n/a	n/a	n/a	n/a	n/a	n/a	n/a	n/a	n/a	n/a	n/a	n/a	n/a	n/a	n/a	n/a	n/a	n/a	n/a	n/a	n/a	n/a	n/a	n/a	n/a	n/a	n/a	n/a	n/a	n/a	n/a	n/a	n/a	n/a	n/a	n/a	n/a	n/a	n/a	n/a	5	n/a	n/a
14.4	0.8	n/a	n/a	n/a	n/a	n/a	n/a	n/a	n/a	n/a	n/a	n/a	n/a	n/a	n/a	n/a	n/a	n/a	n/a	n/a	n/a	n/a	n/a	n/a	n/a	n/a	n/a	n/a	n/a	n/a	n/a	n/a	n/a	n/a	n/a	n/a	n/a	n/a	n/a	n/a	n/a	n/a	n/a	n/a	n/a	n/a	n/a	n/a	n/a	7	n/a	n/a
16	0.8	n/a	n/a	n/a	n/a	n/a	n/a	n/a	n/a	n/a	n/a	n/a	n/a	n/a	n/a	n/a	n/a	n/a	n/a	n/a	n/a	n/a	n/a	n/a	n/a	n/a	n/a	n/a	n/a	n/a	n/a	n/a	n/a	n/a	n/a	n/a	n/a	n/a	n/a	n/a	n/a	n/a	n/a	n/a	n/a	n/a	n/a	n/a	n/a	7	n/a	n/a
17.6	0.8	n/a	n/a	n/a	n/a	n/a	n/a	n/a	n/a	n/a	n/a	n/a	n/a	n/a	n/a	n/a	n/a	n/a	n/a	n/a	n/a	n/a	n/a	n/a	n/a	n/a	n/a	n/a	n/a	n/a	n/a	n/a	n/a	n/a	n/a	n/a	n/a	n/a	n/a	n/a	n/a	n/a	n/a	n/a	n/a	n/a	n/a	n/a	n/a	7	n/a	n/a
19.2	0.8	n/a	n/a	n/a	n/a	n/a	n/a	n/a	n/a	n/a	n/a	n/a	n/a	n/a	n/a	n/a	n/a	n/a	n/a	n/a	n/a	n/a	n/a	n/a	n/a	n/a	n/a	n/a	n/a	n/a	n/a	n/a	n/a	n/a	n/a	n/a	n/a	n/a	n/a	n/a	n/a	n/a	n/a	n/a	n/a	n/a	n/a	n/a	n/a	5	n/a	n/a
20.8	0.8	n/a	n/a	n/a	n/a	n/a	n/a	n/a	n/a	n/a	n/a	n/a	n/a	n/a	n/a	n/a	n/a	n/a	n/a	n/a	n/a	n/a	n/a	n/a	n/a	n/a	n/a	n/a	n/a	n/a	n/a	n/a	n/a	n/a	n/a	n/a	n/a	n/a	n/a	n/a	n/a	n/a	n/a	n/a	n/a	n/a	n/a	n/a	n/a	5	n/a	n/a
22.4	0.8	n/a	n/a	n/a	n/a	n/a	n/a	n/a	n/a	n/a	n/a	n/a	n/a	n/a	n/a	n/a	n/a	n/a	n/a	n/a	n/a	n/a	n/a	n/a	n/a	n/a	n/a	n/a	n/a	n/a	n/a	n/a	n/a	n/a	n/a	n/a	n/a	n/a	n/a	n/a	n/a	n/a	n/a	n/a	n/a	n/a	n/a	n/a	n/a	7	n/a	n/a
24	0.8	n/a	n/a	n/a	n/a	n/a	n/a	n/a	n/a	n/a	n/a	n/a	n/a	n/a	n/a	n/a	n/a	n/a	n/a	n/a	n/a	n/a	n/a	n/a	n/a	n/a	n/a	n/a	n/a	n/a	n/a	n/a	n/a	n/a	n/a	n/a	n/a	n/a	n/a	n/a	n/a	n/a	n/a	n/a	n/a	n/a	n/a	n/a	n/a	7	n/a	n/a
25.6	0.8	n/a	n/a	n/a	n/a	n/a	n/a	n/a	n/a	n/a	n/a	n/a	n/a	n/a	n/a	n/a	n/a	n/a	n/a	n/a	n/a	n/a	n/a	n/a	n/a	n/a	n/a	n/a	n/a	n/a	n/a	n/a	n/a	n/a	n/a	n/a	n/a	n/a	n/a	n/a	n/a	n/a	n/a	n/a	n/a	n/a	n/a	n/a	n/a	5	n/a	n/a
27.2	0.8	n/a	n/a	n/a	n/a	n/a	n/a	n/a	n/a	n/a	n/a	n/a	n/a	n/a	n/a	n/a	n/a	n/a	n/a	n/a	n/a	n/a	n/a	n/a	n/a	n/a	n/a	n/a	n/a	n/a	n/a	n/a	n/a	n/a	n/a	n/a	n/a	n/a	n/a	n/a	n/a	n/a	n/a	n/a	n/a	n/a	n/a	n/a	n/a	7	n/a	n/a
28.8	0.8	n/a	n/a	n/a	n/a	n/a	n/a	n/a	n/a	n/a	n/a	n/a	n/a	n/a	n/a	n/a	n/a	n/a	n/a	n/a	n/a	n/a	n/a	n/a	n/a	n/a	n/a	n/a	n/a	n/a	n/a	n/a	n/a	n/a	n/a	n/a	n/a	n/a	n/a	n/a	n/a	n/a	n/a	n/a	n/a	n/a	n/a	n/a	n/a	7	n/a	n/a
30.4	0.8	n/a	n/a	n/a	n/a	n/a	n/a	n/a	n/a	n/a	n/a	n/a	n/a	n/a	n/a	n/a	n/a	n/a	n/a	n/a	n/a	n/a	n/a	n/a	n/a	n/a	n/a	n/a	n/a	n/a	n/a	n/a	n/a	n/a	n/a	n/a	n/a	n/a	n/a	n/a	n/a	n/a	n/a	n/a	n/a	n/a	n/a	n/a	n/a	5	n/a	n/a
32	0.8	n/a	n/a	n/a	n/a	n/a	n/a	n/a	n/a	n/a	n/a	n/a	n/a	n/a	n/a	n/a	n/a	n/a	n/a	n/a	n/a	n/a	n/a	n/a	n/a	n/a	n/a	n/a	n/a	n/a	n/a	n/a	n/a	n/a	n/a	n/a	n/a	n/a	n/a	n/a	n/a	n/a	n/a	n/a	n/a	n/a	n/a	n/a	n/a	5	n/a	n/a
33.6	0.8	n/a	n/a	n/a	n/a	n/a	n/a	n/a	n/a	n/a	n/a	n/a	n/a	n/a	n/a	n/a	n/a	n/a	n/a	n/a	n/a	n/a	n/a	n/a	n/a	n/a	n/a	n/a	n/a	n/a	n/a	n/a	n/a	n/a	n/a	n/a	n/a	n/a	n/a	n/a	n/a	n/a	n/a	n/a	n/a	n/a	n/a	n/a	n/a	7	n/a	n/a
35.2	0.8	n/a	n/a	n/a	n/a	n/a	n/a	n/a	n/a	n/a	n/a	n/a	n/a	n/a	n/a	n/a	n/a	n/a	n/a	n/a	n/a	n/a	n/a	n/a	n/a	n/a	n/a	n/a	n/a	n/a	n/a	n/a	n/a	n/a	n/a	n/a	n/a	n/a	n/a	n/a	n/a	n/a	n/a	n/a	n/a	n/a	n/a	n/a	n/a	7	n/a	n/a
36.8	0.8	n/a	n/a	n/a	n/a	n/a	n/a	n/a	n/a	n/a	n/a	n/a	n/a	n/a	n/a	n/a	n/a	n/a	n/a	n/a	n/a	n/a	n/a	n/a	n/a	n/a	n/a	n/a	n/a	n/a	n/a	n/a	n/a	n/a	n/a	n/a	n/a	n/a	n/a	n/a	n/a	n/a	n/a	n/a	n/a	n/a	n/a	n/a	n/a	7	n/a	n/a
38.4	0.8	n/a	n/a	n/a	n/a	n/a	n/a	n/a	n/a	n/a	n/a	n/a	n/a	n/a	n/a	n/a	n/a	n/a	n/a	n/a	n/a	n/a	n/a	n/a	n/a	n/a	n/a	n/a	n/a	n/a	n/a	n/a	n/a	n/a	n/a	n/a	n/a	n/a	n/a	n/a	n/a	n/a	n/a	n/a	n/a	n/a	n/a	n/a	n/a	5	n/a	n/a
40	0.8	n/a	n/a	n/a	n/a	n/a	n/a	n/a	n/a	n/a	n/a	n/a	n/a	n/a	n/a	n/a	n/a	n/a	n/a	n/a	n/a	n/a	n/a	n/a	n/a	n/a	n/a	n/a	n/a	n/a	n/a	n/a	n/a	n/a	n/a	n/a	n/a	n/a	n/a	n/a	n/a	n/a	n/a	n/a	n/a	n/a	n/a	n/a	n/a	5	n/a	n/a
41.6	0.8	n/a	n/a	n/a	n/a	n/a	n/a	n/a	n/a	n/a	n/a	n/a	n/a	n/a	n/a	n/a	n/a	n/a	n/a	n/a	n/a	n/a	n/a	n/a	n/a	n/a	n/a	n/a	n/a	n/a	n/a	n/a	n/a	n/a	n/a	n/a	n/a	n/a	n/a	n/a	n/a	n/a	n/a	n/a	n/a	n/a	n/a	n/a	n/a	5	n/a	n/a
43.2	0.8	n/a	n/a	n/a	n/a	n/a	n/a	n/a	n/a	n/a	n/a	n/a	n/a	n/a	n/a	n/a	n/a	n/a	n/a	n/a	n/a	n/a	n/a	n/a	n/a	n/a	n/a	n/a	n/a	n/a	n/a	n/a	n/a	n/a	n/a	n/a	n/a	n/a	n/a	n/a	n/a	n/a	n/a	n/a	n/a	n/a	n/a	n/a	n/a	7	n/a	n/a
44.8	0.8	n/a	n/a	n/a	n/a	n/a	n/a	n/a	n/a	n/a	n/a	n/a	n/a	n/a	n/a	n/a	n/a	n/a	n/a	n/a	n/a	n/a	n/a	n/a	n/a	n/a	n/a	n/a	n/a	n/a	n/a	n/a	n/a	n/a	n/a	n/a	n/a	n/a	n/a	n/a	n/a	n/a	n/a	n/a	n/a	n/a	n/a	n/a	n/a	7	n/a	n/a
46.4	0.8	n/a	n/a	n/a	n/a	n/a	n/a	n/a	n/a	n/a	n/a	n/a	n/a	n/a	n/a	n/a	n/a	n/a	n/a	n/a	n/a	n/a	n/a	n/a	n/a	n/a	n/a	n/a	n/a	n/a	n/a	n/a	n/a	n/a	n/a	n/a	n/a	n/a	n/a	n/a	n/a	n/a	n/a	n/a	n/a	n/a	n/a	n/a	n/a	7	n/a	n/a
48	0.8	n/a	n/a	n/a	n/a	n/a	n/a	n/a	n/a	n/a	n/a	n/a	n/a	n/a	n/a	n/a	n/a	n/a	n/a	n/a	n/a	n/a	n/a	n/a	n/a	n/a	n/a	n/a	n/a	n/a	n/a	n/a	n/a	n/a	n/a	n/a	n/a	n/a	n/a	n/a	n/a	n/a	n/a	n/a	n/a	n/a	n/a	n/a	n/a	5	n/a	n/a
49.6	0.8	n/a	n/a	n/a	n/a	n/a	n/a	n/a	n/a	n/a	n/a	n/a	n/a	n/a	n/a	n/a	n/a	n/a	n/a	n/a	n/a	n/a	n/a	n/a	n/a	n/a	n/a	n/a	n/a	n/a	n/a	n/a	n/a	n/a	n/a	n/a	n/a	n/a	n/a	n/a	n/a	n/a	n/a	n/a	n/a	n/a	n/a	n/a	n/a	7	n/a	n/a
51.2	0.8	n/a	n/a	n/a	n/a	n/a	n/a	n/a	n/a	n/a	n/a	n/a	n/a	n/a	n/a	n/a	n/a	n/a	n/a	n/a	n/a	n/a	n/a	n/a	n/a	n/a	n/a	n/a	n/a	n/a	n/a	n/a	n/a	n/a	n/a	n/a	n/a	n/a	n/a	n/a	n/a	n/a	n/a	n/a	n/a	n/a	n/a	n/a	n/a	5	n/a	n/a
52.8	0.8	n/a	n/a	n/a	n/a	n/a	n/a	n/a	n/a	n/a	n/a	n/a	n/a	n/a	n/a	n/a	n/a	n/a	n/a	n/a	n/a	n/a	n/a	n/a	n/a	n/a	n/a	n/a	n/a	n/a	n/a	n/a	n/a	n/a	n/a	n/a	n/a	n/a	n/a	n/a	n/a	n/a	n/a	n/a	n/a	n/a	n/a	n/a	n/a	7	n/a	n/a
54.4	0.8	n/a	n/a	n/a	n/a	n/a	n/a	n/a	n/a	n/a	n/a	n/a	n/a	n/a	n/a	n/a	n/a	n/a	n/a	n/a	n/a	n/a	n/a	n/a	n/a	n/a	n/a	n/a	n/a	n/a	n/a	n/a	n/a	n/a	n/a	n/a	n/a	n/a	n/a	n/a	n/a	n/a	n/a	n/a	n/a	n/a	n/a	n/a	n/a	5	n/a	n/a
56	0.8	n/a	n/a	n/a	n/a	n/a	n/a	n/a	n/a	n/a	n/a	n/a	n/a	n/a	n/a	n/a	n/a	n/a	n/a	n/a	n/a	n/a	n/a	n/a	n/a	n/a	n/a	n/a	n/a	n/a	n/a	n/a	n/a	n/a	n/a	n/a	n/a	n/a	n/a	n/a	n/a	n/a	n/a	n/a	n/a	n/a	n/a	n/a	n/a	7	n/a	n/a
57.6	0.8	n/a	n/a	n/a	n/a	n/a	n/a	n/a	n/a	n/a	n/a	n/a	n/a	n/a	n/a	n/a	n/a	n/a	n/a	n/a	n/a	n/a	n/a	n/a	n/a	n/a	n/a	n/a	n/a	n/a	n/a	n/a	n/a	n/a	n/a	n/a	n/a	n/a	n/a	n/a	n/a	n/a	n/a	n/a	n/a	n/a	n/a	n/a	n/a	7	n/a	n/a
59.2	0.8	n/a	n/a	n/a	n/a	n/a	n/a	n/a	n/a	n/a	n/a	n/a	n/a	n/a	n/a	n/a	n/a	n/a	n/a	n/a	n/a	n/a	n/a	n/a	n/a	n/a	n/a	n/a	n/a	n/a	n/a	n/a	n/a	n/a	n/a	n/a	n/a	n/a	n/a	n/a	n/a	n/a	n/a	n/a	n/a	n/a	n/a	n/a	n/a	5	n/a	n/a
60.8	0.8	n/a	n/a	n/a	n/a	n/a	n/a	n/a	n/a	n/a	n/a	n/a	n/a	n/a	n/a	n/a	n/a	n/a	n/a	n/a	n/a	n/a	n/a	n/a	n/a	n/a	n/a	n/a	n/a	n/a	n/a	n/a	n/a	n/a	n/a	n/a	n/a	n/a	n/a	n/a	n/a	n/a	n/a	n/a	n/a	n/a	n/a	n/a	n/a	7	n/a	n/a
62.4	0.8	n/a	n/a	n/a	n/a	n/a	n/a	n/a	n/a	n/a	n/a	n/a	n/a	n/a	n/a	n/a	n/a	n/a	n/a	n/a	n/a	n/a	n/a	n/a	n/a	n/a	n/a	n/a	n/a	n/a	n/a	n/a	n/a	n/a	n/a	n/a	n/a	n/a	n/a	n/a	n/a	n/a	n/a	n/a	n/a	n/a	n/a	n/a	n/a	5	n/a	n/a
64	0.8	n/a	n/a	n/a	n/a	n/a	n/a	n/a	n/a	n/a	n/a	n/a	n/a	n/a	n/a	n/a	n/a	n/a	n/a	n/a	n/a	n/a	n/a	n/a	n/a	n/a	n/a	n/a	n/a	n/a	n/a	n/a	n/a	n/a	n/a	n/a	n/a	n/a	n/a	n/a	n/a	n/a	n/a	n/a	n/a	n/a	n/a	n/a	n/a	7	n/a	n/a
65.6	0.8	n/a	n/a	n/a	n/a	n/a	n/a	n/a	n/a	n/a	n/a	n/a	n/a	n/a	n/a	n/a	n/a	n/a	n/a	n/a	n/a	n/a	n/a	n/a	n/a	n/a	n/a	n/a	n/a	n/a	n/a	n/a	n/a	n/a	n/a	n/a	n/a	n/a	n/a	n/a	n/a	n/a	n/a	n/a	n/a	n/a	n/a	n/a	n/a	7	n/a	n/a
67.2	0.8	n/a	n/a	n/a	n/a	n/a	n/a	n/a	n/a	n/a	n/a	n/a	n/a	n/a	n/a	n/a	n/a	n/a	n/a	n/a	n/a	n/a	n/a	n/a	n/a	n/a	n/a	n/a	n/a	n/a	n/a	n/a	n/a	n/a	n/a	n/a	n/a	n/a	n/a	n/a	n/a	n/a	n/a	n/a	n/a	n/a	n/a	n/a	n/a	5	n/a	n/a
68.8	0.8	n/a	n/a	n/a	n/a	n/a	n/a	n/a	n/a	n/a	n/a	n/a	n/a	n/a	n/a	n/a	n/a	n/a	n/a	n/a	n/a	n/a	n/a	n/a	n/a	n/a	n/a	n/a	n/a	n/a	n/a	n/a	n/a	n/a	n/a	n/a	n/a	n/a	n/a	n/a	n/a	n/a	n/a	n/a	n/a	n/a	n/a	n/a	n/a	5	n/a	n/a
70.4	0.8	n/a	n/a	n/a	n/a	n/a	n/a	n/a	n/a	n/a	n/a	n/a	n/a	n/a	n/a	n/a	n/a	n/a	n/a	n/a	n/a	n/a	n/a	n/a	n/a	n/a	n/a	n/a	n/a	n/a	n/a	n/a	n/a	n/a	n/a	n/a	n/a	n/a	n/a	n/a	n/a	n/a	n/a	n/a	n/a	n/a	n/a	n/a	n/a	5	n/a	n/a
72	0.8	n/a	n/a	n/a	n/a	n/a	n/a	n/a	n/a	n/a	n/a	n/a	n/a	n/a	n/a	n/a	n/a	n/a	n/a	n/a	n/a	n/a	n/a	n/a	n/a	n/a	n/a	n/a	n/a	n/a	n/a	n/a	n/a	n/a	n/a	n/a	n/a	n/a	n/a	n/a	n/a	n/a	n/a	n/a	n/a	n/a	n/a	n/a	n/a	7	n/a	n/a
73.6	0.8	n/a	n/a	n/a	n/a	n/a	n/a	n/a	n/a	n/a	n/a	n/a	n/a	n/a	n/a	n/a	n/a	n/a	n/a	n/a	n/a	n/a	n/a	n/a	n/a	n/a	n/a	n/a	n/a	n/a	n/a	n/a	n/a	n/a	n/a	n/a	n/a	n/a	n/a	n/a	n/a	n/a	n/a	n/a	n/a	n/a	n/a	n/a	n/a	5	n/a	n/a
75.2	0.8	n/a	n/a	n/a	n/a	n/a	n/a	n/a	n/a	n/a	n/a	n/a	n/a	n/a	n/a	n/a	n/a	n/a	n/a	n/a	n/a	n/a	n/a	n/a	n/a	n/a	n/a	n/a	n/a	n/a	n/a	n/a	n/a	n/a	n/a	n/a	n/a	n/a	n/a	n/a	n/a	n/a	n/a	n/a	n/a	n/a	n/a	n/a	n/a	7	n/a	n/a
76.8	0.8	n/a	n/a	n/a	n/a	n/a	n/a	n/a	n/a	n/a	n/a	n/a	n/a	n/a	n/a	n/a	n/a	n/a	n/a	n/a	n/a	n/a	n/a	n/a	n/a	n/a	n/a	n/a	n/a	n/a	n/a	n/a	n/a	n/a	n/a	n/a	n/a	n/a	n/a	n/a	n/a	n/a	n/a	n/a	n/a	n/a	n/a	n/a	n/a	7	n/a	n/a
78.4	0.8	n/a	n/a	n/a	n/a	n/a	n/a	n/a	n/a	n/a	n/a	n/a	n/a	n/a	n/a	n/a	n/a	n/a	n/a	n/a	n/a	n/a	n/a	n/a	n/a	n/a	n/a	n/a	n/a	n/a	n/a	n/a	n/a	n/a	n/a	n/a	n/a	n/a	n/a	n/a	n/a	n/a	n/a	n/a	n/a	n/a	n/a	n/a	n/a	7	n/a	n/a
80	0.8	n/a	n/a	n/a	n/a	n/a	n/a	n/a	n/a	n/a	n/a	n/a	n/a	n/a	n/a	n/a	n/a	n/a	n/a	n/a	n/a	n/a	n/a	n/a	n/a	n/a	n/a	n/a	n/a	n/a	n/a	n/a	n/a	n/a	n/a	n/a	n/a	n/a	n/a	n/a	n/a	n/a	n/a	n/a	n/a	n/a	n/a	n/a	n/a	5	n/a	n/a
81.6	0.8	n/a	n/a	n/a	n/a	n/a	n/a	n/a	n/a	n/a	n/a	n/a	n/a	n/a	n/a	n/a	n/a	n/a	n/a	n/a	n/a	n/a	n/a	n/a	n/a	n/a	n/a	n/a	n/a	n/a	n/a	n/a	n/a	n/a	n/a	n/a	n/a	n/a	n/a	n/a	n/a	n/a	n/a	n/a	n/a	n/a	n/a	n/a	n/a	5	n/a	n/a
83.2	0.8	n/a	n/a	n/a	n/a	n/a	n/a	n/a	n/a	n/a	n/a	n/a	n/a	n/a	n/a	n/a	n/a	n/a	n/a	n/a	n/a	n/a	n/a	n/a	n/a	n/a	n/a	n/a	n/a	n/a	n/a	n/a	n/a	n/a	n/a	n/a	n/a	n/a	n/a	n/a	n/a	n/a	n/a	n/a	n/a	n/a	n/a	n/a	n/a	5	n/a	n/a
84.8	0.8	n/a	n/a	n/a	n/a	n/a	n/a	n/a	n/a	n/a	n/a	n/a	n/a	n/a	n/a	n/a	n/a	n/a	n/a	n/a	n/a	n/a	n/a	n/a	n/a	n/a	n/a	n/a	n/a	n/a	n/a	n/a	n/a	n/a	n/a	n/a	n/a	n/a	n/a	n/a	n/a	n/a	n/a	n/a	n/a	n/a	n/a	n/a	n/a	7	n/a	n/a
86.4	0.8	n/a	n/a	n/a	n/a	n/a	n/a	n/a	n/a	n/a	n/a	n/a	n/a	n/a	n/a	n/a	n/a	n/a	n/a	n/a	n/a	n/a	n/a	n/a	n/a	n/a	n/a	n/a	n/a	n/a	n/a	n/a	n/a	n/a	n/a	n/a	n/a	n/a	n/a	n/a	n/a	n/a	n/a	n/a	n/a	n/a	n/a	n/a	n/a	5	n/a	n/a
88	0.8	n/a	n/a	n/a	n/a	n/a	n/a	n/a	n/a	n/a	n/a	n/a	n/a	n/a	n/a	n/a	n/a	n/a	n/a	n/a	n/a	n/a	n/a	n/a	n/a	n/a	n/a	n/a	n/a	n/a	n/a	n/a	n/a	n/a	n/a	n/a	n/a	n/a	n/a	n/a	n/a	n/a	n/a	n/a	n/a	n/a	n/a	n/a	n/a	7	n/a	n/a
89.6	0.8	n/a	n/a	n/a	n/a	n/a	n/a	n/a	n/a	n/a	n/a	n/a	n/a	n/a	n/a	n/a	n/a	n/a	n/a	n/a	n/a	n/a	n/a	n/a	n/a	n/a	n/a	n/a	n/a	n/a	n/a	n/a	n/a	n/a	n/a	n/a	n/a	n/a	n/a	n/a	n/a	n/a	n/a	n/a	n/a	n/a	n/a	n/a	n/a	5	n/a	n/a
91.2	0.8	n/a	n/a	n/a	n/a	n/a	n/a	n/a	n/a	n/a	n/a	n/a	n/a	n/a	n/a	n/a	n/a	n/a	n/a	n/a	n/a	n/a	n/a	n/a	n/a	n/a	n/a	n/a	n/a	n/a	n/a	n/a	n/a	n/a	n/a	n/a	n/a	n/a	n/a	n/a	n/a	n/a	n/a	n/a	n/a	n/a	n/a	n/a	n/a	7	n/a	n/a
92.8	0.8	n/a	n/a	n/a	n/a	n/a	n/a	n/a	n/a	n/a	n/a	n/a	n/a	n/a	n/a	n/a	n/a	n/a	n/a	n/a	n/a	n/a	n/a	n/a	n/a	n/a	n/a	n/a	n/a	n/a	n/a	n/a	n/a	n/a	n/a	n/a	n/a	n/a	n/a	n/a	n/a	n/a	n/a	n/a	n/a	n/a	n/a	n/a	n/a	7	n/a	n/a
94.4	0.8	n/a	n/a	n/a	n/a	n/a	n/a	n/a	n/a	n/a	n/a	n/a	n/a	n/a	n/a	n/a	n/a	n/a	n/a	n/a	n/a	n/a	n/a	n/a	n/a	n/a	n/a	n/a	n/a	n/a	n/a	n/a	n/a	n/a	n/a	n/a	n/a	n/a	n/a	n/a	n/a	n/a	n/a	n/a	n/a	n/a	n/a	n/a	n/a	5	n/a	n/a
96	0.8	n/a	n/a	n/a	n/a	n/a	n/a	n/a	n/a	n/a	n/a	n/a	n/a	n/a	n/a	n/a	n/a	n/a	n/a	n/a	n/a	n/a	n/a	n/a	n/a	n/a	n/a	n/a	n/a	n/a	n/a	n/a	n/a	n/a	n/a	n/a	n/a	n/a	n/a	n/a	n/a	n/a	n/a	n/a	n/a	n/a	n/a	n/a	n/a	5	n/a	n/a
97.6	0.8	n/a	n/a	n/a	n/a	n/a	n/a	n/a	n/a	n/a	n/a	n/a	n/a	n/a	n/a	n/a	n/a	n/a	n/a	n/a	n/a	n/a	n/a	n/a	n/a	n/a	n/a	n/a	n/a	n/a	n/a	n/a	n/a	n/a	n/a	n/a	n/a	n/a	n/a	n/a	n/a	n/a	n/a	n/a	n/a	n/a	n/a	n/a	n/a	5	n/a	n/a
99.2	0.8	n/a	n/a	n/a	n/a	n/a	n/a	n/a	n/a	n/a	n/a	n/a	n/a	n/a	n/a	n/a	n/a	n/a	n/a	n/a	n/a	n/a	n/a	n/a	n/a	n/a	n/a	n/a	n/a	n/a	n/a	n/a	n/a	n/a	n/a	n/a	n/a	n/a	n/a	n/a	n/a	n/a	n/a	n/a	n/a	n/a	n/a	n/a	n/a	7	n/a	n/a
100.8	0.8	n/a	n/a	n/a	n/a	n/a	n/a	n/a	n/a	n/a	n/a	n/a	n/a	n/a	n/a	n/a	n/a	n/a	n/a	n/a	n/a	n/a	n/a	n/a	n/a	n/a	n/a	n/a	n/a	n/a	n/a	n/a	n/a	n/a	n/a	n/a	n/a	n/a	n/a	n/a	n/a	n/a	n/a	n/a	n/a	n/a	n/a	n/a	n/a	7	n/a	n/a
102.4	0.8	n/a	n/a	n/a	n/a	n/a	n/a	n/a	n/a	n/a	n/a	n/a	n/a	n/a	n/a	n/a	n/a	n/a	n/a	n/a	n/a	n/a	n/a	n/a	n/a	n/a	n/a	n/a	n/a	n/a	n/a	n/a	n/a	n/a	n/a	n/a	n/a	n/a	n/a	n/a	n/a	n/a	n/a	n/a	n/a	n/a	n/a	n/a	n/a	7	n/a	n/a
104	0.8	n/a	n/a	n/a	n/a	n/a	n/a	n/a	n/a	n/a	n/a	n/a	n/a	n/a	n/a	n/a	n/a	n/a	n/a	n/a	n/a	n/a	n/a	n/a	n/a	n/a	n/a	n/a	n/a	n/a	n/a	n/a	n/a	n/a	n/a	n/a	n/a	n/a	n/a	n/a	n/a	n/a	n/a	n/a	n/a	n/a	n/a	n/a	n/a	5	n/a	n/a
105.6	0.8	n/a	n/a	n/a	n/a	n/a	n/a	n/a	n/a	n/a	n/a	n/a	n/a	n/a	n/a	n/a	n/a	n/a	n/a	n/a	n/a	n/a	n/a	n/a	n/a	n/a	n/a	n/a	n/a	n/a	n/a	n/a	n/a	n/a	n/a	n/a	n/a	n/a	n/a	n/a	n/a	n/a	n/a	n/a	n/a	n/a	n/a	n/a	n/a	7	n/a	n/a
107.2	0.8	n/a	n/a	n/a	n/a	n/a	n/a	n/a	n/a	n/a	n/a	n/a	n/a	n/a	n/a	n/a	n/a	n/a	n/a	n/a	n/a	n/a	n/a	n/a	n/a	n/a	n/a	n/a	n/a	n/a	n/a	n/a	n/a	n/a	n/a	n/a	n/a	n/a	n/a	n/a	n/a	n/a	n/a	n/a	n/a	n/a	n/a	n/a	n/a	5	n/a	n/a
108.8	0.8	n/a	n/a	n/a	n/a	n/a	n/a	n/a	n/a	n/a	n/a	n/a	n/a	n/a	n/a	n/a	n/a	n/a	n/a	n/a	n/a	n/a	n/a	n/a	n/a	n/a	n/a	n/a	n/a	n/a	n/a	n/a	n/a	n/a	n/a	n/a	n/a	n/a	n/a	n/a	n/a	n/a	n/a	n/a	n/a	n/a	n/a	n/a	n/a	5	n/a	n/a
110.4	0.8	n/a	n/a	n/a	n/a	n/a	n/a	n/a	n/a	n/a	n/a	n/a	n/a	n/a	n/a	n/a	n/a	n/a	n/a	n/a	n/a	n/a	n/a	n/a	n/a	n/a	n/a	n/a	n/a	n/a	n/a	n/a	n/a	n/a	n/a	n/a	n/a	n/a	n/a	n/a	n/a	n/a	n/a	n/a	n/a	n/a	n/a	n/a	n/a	5	n/a	n/a
112	0.8	n/a	n/a	n/a	n/a	n/a	n/a	n/a	n/a	n/a	n/a	n/a	n/a	n/a	n/a	n/a	n/a	n/a	n/a	n/a	n/a	n/a	n/a	n/a	n/a	n/a	n/a	n/a	n/a	n/a	n/a	n/a	n/a	n/a	n/a	n/a	n/a	n/a	n/a	n/a	n/a	n/a	n/a	n/a	n/a	n/a	n/a	n/a	n/a	7	n/a	n/a
113.6	0.8	n/a	n/a	n/a	n/a	n/a	n/a	n/a	n/a	n/a	n/a	n/a	n/a	n/a	n/a	n/a	n/a	n/a	n/a	n/a	n/a	n/a	n/a	n/a	n/a	n/a	n/a	n/a	n/a	n/a	n/a	n/a	n/a	n/a	n/a	n/a	n/a	n/a	n/a	n/a	n/a	n/a	n/a	n/a	n/a	n/a	n/a	n/a	n/a	7	n/a	n/a
115.2	0.8	n/a	n/a	n/a	n/a	n/a	n/a	n/a	n/a	n/a	n/a	n/a	n/a	n/a	n/a	n/a	n/a	n/a	n/a	n/a	n/a	n/a	n/a	n/a	n/a	n/a	n/a	n/a	n/a	n/a	n/a	n/a	n/a	n/a	n/a	n/a	n/a	n/a	n/a	n/a	n/a	n/a	n/a	n/a	n/a	n/a	n/a	n/a	n/a	5	n/a	n/a
116.8	0.8	n/a	n/a	n/a	n/a	n/a	n/a	n/a	n/a	n/a	n/a	n/a	n/a	n/a	n/a	n/a	n/a	n/a	n/a	n/a	n/a	n/a	n/a	n/a	n/a	n/a	n/a	n/a	n/a	n/a	n/a	n/a	n/a	n/a	n/a	n/a	n/a	n/a	n/a	n/a	n/a	n/a	n/a	n/a	n/a	n/a	n/a	n/a	n/a	5	n/a	n/a
118.4	0.8	n/a	n/a	n/a	n/a	n/a	n/a	n/a	n/a	n/a	n/a	n/a	n/a	n/a	n/a	n/a	n/a	n/a	n/a	n/a	n/a	n/a	n/a	n/a	n/a	n/a	n/a	n/a	n/a	n/a	n/a	n/a	n/a	n/a	n/a	n/a	n/a	n/a	n/a	n/a	n/a	n/a	n/a	n/a	n/a	n/a	n/a	n/a	n/a	5	n/a	n/a
120	0.8	n/a	n/a	n/a	n/a	n/a	n/a	n/a	n/a	n/a	n/a	n/a	n/a	n/a	n/a	n/a	n/a	n/a	n/a	n/a	n/a	n/a	n/a	n/a	n/a	n/a	n/a	n/a	n/a	n/a	n/a	n/a	n/a	n/a	n/a	n/a	n/a	n/a	n/a	n/a	n/a	n/a	n/a	n/a	n/a	n/a	n/a	n/a	n/a	7	n/a	n/a
121.6	0.8	n/a	n/a	n/a	n/a	n/a	n/a	n/a	n/a	n/a	n/a	n/a	n/a	n/a	n/a	n/a	n/a	n/a	n/a	n/a	n/a	n/a	n/a	n/a	n/a	n/a	n/a	n/a	n/a	n/a	n/a	n/a	n/a	n/a	n/a	n/a	n/a	n/a	n/a	n/a	n/a	n/a	n/a	n/a	n/a	n/a	n/a	n/a	n/a	5	n/a	n/a
123.2	0.8	n/a	n/a	n/a	n/a	n/a	n/a	n/a	n/a	n/a	n/a	n/a	n/a	n/a	n/a	n/a	n/a	n/a	n/a	n/a	n/a	n/a	n/a	n/a	n/a	n/a	n/a	n/a	n/a	n/a	n/a	n/a	n/a	n/a	n/a	n/a	n/a	n/a	n/a	n/a	n/a	n/a	n/a	n/a	n/a	n/a	n/a	n/a	n/a	7	n/a	n/a
124.8	0.8	n/a	n/a	n/a	n/a	n/a	n/a	n/a	n/a	n/a	n/a	n/a	n/a	n/a	n/a	n/a	n/a	n/a	n/a	n/a	n/a	n/a	n/a	n/a	n/a	n/a	n/a	n/a	n/a	n/a	n/a	n/a	n/a	n/a	n/a	n/a	n/a	n/a	n/a	n/a	n/a	n/a	n/a	n/a	n/a	n/a	n/a	n/a	n/a	7	n/a	n/a
126.4	0.8	n/a	n/a	n/a	n/a	n/a	n/a	n/a	n/a	n/a	n/a	n/a	n/a	n/a	n/a	n/a	n/a	n/a	n/a	n/a	n/a	n/a	n/a	n/a	n/a	n/a	n/a	n/a	n/a	n/a	n/a	n/a	n/a	n/a	n/a	n/a	n/a	n/a	n/a	n/a	n/a	n/a	n/a	n/a	n/a	n/a	n/a	n/a	n/a	7	n/a	n/a
128	0.8	n/a	n/a	n/a	n/a	n/a	n/a	n/a	n/a	n/a	n/a	n/a	n/a	n/a	n/a	n/a	n/a	n/a	n/a	n/a	n/a	n/a	n/a	n/a	n/a	n/a	n/a	n/a	n/a	n/a	n/a	n/a	n/a	n/a	n/a	n/a	n/a	n/a	n/a	n/a	n/a	n/a	n/a	n/a	n/a	n/a	n/a	n/a	n/a	5	n/a	n/a
129.6	0.8	n/a	n/a	n/a	n/a	n/a	n/a	n/a	n/a	n/a	n/a	n/a	n/a	n/a	n/a	n/a	n/a	n/a	n/a	n/a	n/a	n/a	n/a	n/a	n/a	n/a	n/a	n/a	n/a	n/a	n/a	n/a	n/a	n/a	n/a	n/a	n/a	n/a	n/a	n/a	n/a	n/a	n/a	n/a	n/a	n/a	n/a	n/a	n/a	5	n/a	n/a
131.2	0.8	n/a	n/a	n/a	n/a	n/a	n/a	n/a	n/a	n/a	n/a	n/a	n/a	n/a	n/a	n/a	n/a	n/a	n/a	n/a	n/a	n/a	n/a	n/a	n/a	n/a	n/a	n/a	n/a	n/a	n/a	n/a	n/a	n/a	n/a	n/a	n/a	n/a	n/a	n/a	n/a	n/a	n/a	n/a	n/a	n/a	n/a	n/a	n/a	5	n/a	n/a
132.8	0.8	n/a	n/a	n/a	n/a	n/a	n/a	n/a	n/a	n/a	n/a	n/a	n/a	n/a	n/a	n/a	n/a	n/a	n/a	n/a	n/a	n/a	n/a	n/a	n/a	n/a	n/a	n/a	n/a	n/a	n/a	n/a	n/a	n/a	n/a	n/a	n/a	n/a	n/a	n/a	n/a	n/a	n/a	n/a	n/a	n/a	n/a	n/a	n/a	7	n/a	n/a
134.4	0.8	n/a	n/a	n/a	n/a	n/a	n/a	n/a	n/a	n/a	n/a	n/a	n/a	n/a	n/a	n/a	n/a	n/a	n/a	n/a	n/a	n/a	n/a	n/a	n/a	n/a	n/a	n/a	n/a	n/a	n/a	n/a	n/a	n/a	n/a	n/a	n/a	n/a	n/a	n/a	n/a	n/a	n/a	n/a	n/a	n/a	n/a	n/a	n/a	7	n/a	n/a
136	0.8	n/a	n/a	n/a	n/a	n/a	n/a	n/a	n/a	n/a	n/a	n/a	n/a	n/a	n/a	n/a	n/a	n/a	n/a	n/a	n/a	n/a	n/a	n/a	n/a	n/a	n/a	n/a	n/a	n/a	n/a	n/a	n/a	n/a	n/a	n/a	n/a	n/a	n/a	n/a	n/a	n/a	n/a	n/a	n/a	n/a	n/a	n/a	n/a	7	n/a	n/a
137.6	0.8	n/a	n/a	n/a	n/a	n/a	n/a	n/a	n/a	n/a	n/a	n/a	n/a	n/a	n/a	n/a	n/a	n/a	n/a	n/a	n/a	n/a	n/a	n/a	n/a	n/a	n/a	n/a	n/a	n/a	n/a	n/a	n/a	n/a	n/a	n/a	n/a	n/a	n/a	n/a	n/a	n/a	n/a	n/a	n/a	n/a	n/a	n/a	n/a	5	n/a	n/a
139.2	0.8	n/a	n/a	n/a	n/a	n/a	n/a	n/a	n/a	n/a	n/a	n/a	n/a	n/a	n/a	n/a	n/a	n/a	n/a	n/a	n/a	n/a	n/a	n/a	n/a	n/a	n/a	n/a	n/a	n/a	n/a	n/a	n/a	n/a	n/a	n/a	n/a	n/a	n/a	n/a	n/a	n/a	n/a	n/a	n/a	n/a	n/a	n/a	n/a	7	n/a	n/a
140.8	0.8	n/a	n/a	n/a	n/a	n/a	n/a	n/a	n/a	n/a	n/a	n/a	n/a	n/a	n/a	n/a	n/a	n/a	n/a	n/a	n/a	n/a	n/a	n/a	n/a	n/a	n/a	n/a	n/a	n/a	n/a	n/a	n/a	n/a	n/a	n/a	n/a	n/a	n/a	n/a	n/a	n/a	n/a	n/a	n/a	n/a	n/a	n/a	n/a	7	n/a	n/a
142.4	0.8	n/a	n/a	n/a	n/a	n/a	n/a	n/a	n/a	n/a	n/a	n/a	n/a	n/a	n/a	n/a	n/a	n/a	n/a	n/a	n/a	n/a	n/a	n/a	n/a	n/a	n/a	n/a	n/a	n/a	n/a	n/a	n/a	n/a	n/a	n/a	n/a	n/a	n/a	n/a	n/a	n/a	n/a	n/a	n/a	n/a	n/a	n/a	n/a	5	n/a	n/a
144	0.8	n/a	n/a	n/a	n/a	n/a	n/a	n/a	n/a	n/a	n/a	n/a	n/a	n/a	n/a	n/a	n/a	n/a	n/a	n/a	n/a	n/a	n/a	n/a	n/a	n/a	n/a	n/a	n/a	n/a	n/a	n/a	n/a	n/a	n/a	n/a	n/a	n/a	n/a	n/a	n/a	n/a	n/a	n/a	n/a	n/a	n/a	n/a	n/a	7	n/a	n/a
145.6	0.8	n/a	n/a	n/a	n/a	n/a	n/a	n/a	n/a	n/a	n/a	n/a	n/a	n/a	n/a	n/a	n/a	n/a	n/a	n/a	n/a	n/a	n/a	n/a	n/a	n/a	n/a	n/a	n/a	n/a	n/a	n/a	n/a	n/a	n/a	n/a	n/a	n/a	n/a	n/a	n/a	n/a	n/a	n/a	n/a	n/a	n/a	n/a	n/a	5	n/a	n/a
147.2	0.8	n/a	n/a	n/a	n/a	n/a	n/a	n/a	n/a	n/a	n/a	n/a	n/a	n/a	n/a	n/a	n/a	n/a	n/a	n/a	n/a	n/a	n/a	n/a	n/a	n/a	n/a	n/a	n/a	n/a	n/a	n/a	n/a	n/a	n/a	n/a	n/a	n/a	n/a	n/a	n/a	n/a	n/a	n/a	n/a	n/a	n/a	n/a	n/a	5	n/a	n/a
148.8	0.8	n/a	n/a	n/a	n/a	n/a	n/a	n/a	n/a	n/a	n/a	n/a	n/a	n/a	n/a	n/a	n/a	n/a	n/a	n/a	n/a	n/a	n/a	n/a	n/a	n/a	n/a	n/a	n/a	n/a	n/a	n/a	n/a	n/a	n/a	n/a	n/a	n/a	n/a	n/a	n/a	n/a	n/a	n/a	n/a	n/a	n/a	n/a	n/a	5	n/a	n/a
150.4	0.8	n/a	n/a	n/a	n/a	n/a	n/a	n/a	n/a	n/a	n/a	n/a	n/a	n/a	n/a	n/a	n/a	n/a	n/a	n/a	n/a	n/a	n/a	n/a	n/a	n/a	n/a	n/a	n/a	n/a	n/a	n/a	n/a	n/a	n/a	n/a	n/a	n/a	n/a	n/a	n/a	n/a	n/a	n/a	n/a	n/a	n/a	n/a	n/a	7	n/a	n/a
152	0.8	n/a	n/a	n/a	n/a	n/a	n/a	n/a	n/a	n/a	n/a	n/a	n/a	n/a	n/a	n/a	n/a	n/a	n/a	n/a	n/a	n/a	n/a	n/a	n/a	n/a	n/a	n/a	n/a	n/a	n/a	n/a	n/a	n/a	n/a	n/a	n/a	n/a	n/a	n/a	n/a	n/a	n/a	n/a	n/a	n/a	n/a	n/a	n/a	7	n/a	n/a
153.6	0.8	n/a	n/a	n/a	n/a	n/a	n/a	n/a	n/a	n/a	n/a	n/a	n/a	n/a	n/a	n/a	n/a	n/a	n/a	n/a	n/a	n/a	n/a	n/a	n/a	n/a	n/a	n/a	n/a	n/a	n/a	n/a	n/a	n/a	n/a	n/a	n/a	n/a	n/a	n/a	n/a	n/a	n/a	n/a	n/a	n/a	n/a	n/a	n/a	7	n/a	n/a
155.2	0.8	n/a	n/a	n/a	n/a	n/a	n/a	n/a	n/a	n/a	n/a	n/a	n/a	n/a	n/a	n/a	n/a	n/a	n/a	n/a	n/a	n/a	n/a	n/a	n/a	n/a	n/a	n/a	n/a	n/a	n/a	n/a	n/a	n/a	n/a	n/a	n/a	n/a	n/a	n/a	n/a	n/a	n/a	n/a	n/a	n/a	n/a	n/a	n/a	5	n/a	n/a
156.8	0.8	n/a	n/a	n/a	n/a	n/a	n/a	n/a	n/a	n/a	n/a	n/a	n/a	n/a	n/a	n/a	n/a	n/a	n/a	n/a	n/a	n/a	n/a	n/a	n/a	n/a	n/a	n/a	n/a	n/a	n/a	n/a	n/a	n/a	n/a	n/a	n/a	n/a	n/a	n/a	n/a	n/a	n/a	n/a	n/a	n/a	n/a	n/a	n/a	7	n/a	n/a
158.4	0.8	n/a	n/a	n/a	n/a	n/a	n/a	n/a	n/a	n/a	n/a	n/a	n/a	n/a	n/a	n/a	n/a	n/a	n/a	n/a	n/a	n/a	n/a	n/a	n/a	n/a	n/a	n/a	n/a	n/a	n/a	n/a	n/a	n/a	n/a	n/a	n/a	n/a	n/a	n/a	n/a	n/a	n/a	n/a	n/a	n/a	n/a	n/a	n/a	7	n/a	n/a
160	0.8	n/a	n/a	n/a	n/a	n/a	n/a	n/a	n/a	n/a	n/a	n/a	n/a	n/a	n/a	n/a	n/a	n/a	n/a	n/a	n/a	n/a	n/a	n/a	n/a	n/a	n/a	n/a	n/a	n/a	n/a	n/a	n/a	n/a	n/a	n/a	n/a	n/a	n/a	n/a	n/a	n/a	n/a	n/a	n/a	n/a	n/a	n/a	n/a	7	n/a	n/a
161.6	0.8	n/a	n/a	n/a	n/a	n/a	n/a	n/a	n/a	n/a	n/a	n/a	n/a	n/a	n/a	n/a	n/a	n/a	n/a	n/a	n/a	n/a	n/a	n/a	n/a	n/a	n/a	n/a	n/a	n/a	n/a	n/a	n/a	n/a	n/a	n/a	n/a	n/a	n/a	n/a	n/a	n/a	n/a	n/a	n/a	n/a	n/a	n/a	n/a	5	n/a	n/a
163.2	0.8	n/a	n/a	n/a	n/a	n/a	n/a	n/a	n/a	n/a	n/a	n/a	n/a	n/a	n/a	n/a	n/a	n/a	n/a	n/a	n/a	n/a	n/a	n/a	n/a	n/a	n/a	n/a	n/a	n/a	n/a	n/a	n/a	n/a	n/a	n/a	n/a	n/a	n/a	n/a	n/a	n/a	n/a	n/a	n/a	n/a	n/a	n/a	n/a	7	n/a	n/a
164.8	0.8	n/a	n/a	n/a	n/a	n/a	n/a	n/a	n/a	n/a	n/a	n/a	n/a	n/a	n/a	n/a	n/a	n/a	n/a	n/a	n/a	n/a	n/a	n/a	n/a	n/a	n/a	n/a	n/a	n/a	n/a	n/a	n/a	n/a	n/a	n/a	n/a	n/a	n/a	n/a	n/a	n/a	n/a	n/a	n/a	n/a	n/a	n/a	n/a	7	n/a	n/a
166.4	0.8	n/a	n/a	n/a	n/a	n/a	n/a	n/a	n/a	n/a	n/a	n/a	n/a	n/a	n/a	n/a	n/a	n/a	n/a	n/a	n/a	n/a	n/a	n/a	n/a	n/a	n/a	n/a	n/a	n/a	n/a	n/a	n/a	n/a	n/a	n/a	n/a	n/a	n/a	n/a	n/a	n/a	n/a	n/a	n/a	n/a	n/a	n/a	n/a	5	n/a	n/a
168	0.8	n/a	n/a	n/a	n/a	n/a	n/a	n/a	n/a	n/a	n/a	n/a	n/a	n/a	n/a	n/a	n/a	n/a	n/a	n/a	n/a	n/a	n/a	n/a	n/a	n/a	n/a	n/a	n/a	n/a	n/a	n/a	n/a	n/a	n/a	n/a	n/a	n/a	n/a	n/a	n/a	n/a	n/a	n/a	n/a	n/a	n/a	n/a	n/a	7	n/a	n/a
169.6	0.8	n/a	n/a	n/a	n/a	n/a	n/a	n/a	n/a	n/a	n/a	n/a	n/a	n/a	n/a	n/a	n/a	n/a	n/a	n/a	n/a	n/a	n/a	n/a	n/a	n/a	n/a	n/a	n/a	n/a	n/a	n/a	n/a	n/a	n/a	n/a	n/a	n/a	n/a	n/a	n/a	n/a	n/a	n/a	n/a	n/a	n/a	n/a	n/a	7	n/a	n/a
171.2	0.8	n/a	n/a	n/a	n/a	n/a	n/a	n/a	n/a	n/a	n/a	n/a	n/a	n/a	n/a	n/a	n/a	n/a	n/a	n/a	n/a	n/a	n/a	n/a	n/a	n/a	n/a	n/a	n/a	n/a	n/a	n/a	n/a	n/a	n/a	n/a	n/a	n/a	n/a	n/a	n/a	n/a	n/a	n/a	n/a	n/a	n/a	n/a	n/a	7	n/a	n/a
172.8	0.8	n/a	n/a	n/a	n/a	n/a	n/a	n/a	n/a	n/a	n/a	n/a	n/a	n/a	n/a	n/a	n/a	n/a	n/a	n/a	n/a	n/a	n/a	n/a	n/a	n/a	n/a	n/a	n/a	n/a	n/a	n/a	n/a	n/a	n/a	n/a	n/a	n/a	n/a	n/a	n/a	n/a	n/a	n/a	n/a	n/a	n/a	n/a	n/a	5	n/a	n/a
174.4	0.8	n/a	n/a	n/a	n/a	n/a	n/a	n/a	n/a	n/a	n/a	n/a	n/a	n/a	n/a	n/a	n/a	n/a	n/a	n/a	n/a	n/a	n/a	n/a	n/a	n/a	n/a	n/a	n/a	n/a	n/a	n/a	n/a	n/a	n/a	n/a	n/a	n/a	n/a	n/a	n/a	n/a	n/a	n/a	n/a	n/a	n/a	n/a	n/a	5	n/a	n/a
176	0.8	n/a	n/a	n/a	n/a	n/a	n/a	n/a	n/a	n/a	n/a	n/a	n/a	n/a	n/a	n/a	n/a	n/a	n/a	n/a	n/a	n/a	n/a	n/a	n/a	n/a	n/a	n/a	n/a	n/a	n/a	n/a	n/a	n/a	n/a	n/a	n/a	n/a	n/a	n/a	n/a	n/a	n/a	n/a	n/a	n/a	n/a	n/a	n/a	7	n/a	n/a
177.6	0.8	n/a	n/a	n/a	n/a	n/a	n/a	n/a	n/a	n/a	n/a	n/a	n/a	n/a	n/a	n/a	n/a	n/a	n/a	n/a	n/a	n/a	n/a	n/a	n/a	n/a	n/a	n/a	n/a	n/a	n/a	n/a	n/a	n/a	n/a	n/a	n/a	n/a	n/a	n/a	n/a	n/a	n/a	n/a	n/a	n/a	n/a	n/a	n/a	7	n/a	n/a
179.2	0.8	n/a	n/a	n/a	n/a	n/a	n/a	n/a	n/a	n/a	n/a	n/a	n/a	n/a	n/a	n/a	n/a	n/a	n/a	n/a	n/a	n/a	n/a	n/a	n/a	n/a	n/a	n/a	n/a	n/a	n/a	n/a	n/a	n/a	n/a	n/a	n/a	n/a	n/a	n/a	n/a	n/a	n/a	n/a	n/a	n/a	n/a	n/a	n/a	7	n/a	n/a
180.8	0.8	n/a	n/a	n/a	n/a	n/a	n/a	n/a	n/a	n/a	n/a	n/a	n/a	n/a	n/a	n/a	n/a	n/a	n/a	n/a	n/a	n/a	n/a	n/a	n/a	n/a	n/a	n/a	n/a	n/a	n/a	n/a	n/a	n/a	n/a	n/a	n/a	n/a	n/a	n/a	n/a	n/a	n/a	n/a	n/a	n/a	n/a	n/a	n/a	5	n/a	n/a
182.4	0.8	n/a	n/a	n/a	n/a	n/a	n/a	n/a	n/a	n/a	n/a	n/a	n/a	n/a	n/a	n/a	n/a	n/a	n/a	n/a	n/a	n/a	n/a	n/a	n/a	n/a	n/a	n/a	n/a	n/a	n/a	n/a	n/a	n/a	n/a	n/a	n/a	n/a	n/a	n/a	n/a	n/a	n/a	n/a	n/a	n/a	n/a	n/a	n/a	5	n/a	n/a
184	0.8	n/a	n/a	n/a	n/a	n/a	n/a	n/a	n/a	n/a	n/a	n/a	n/a	n/a	n/a	n/a	n/a	n/a	n/a	n/a	n/a	n/a	n/a	n/a	n/a	n/a	n/a	n/a	n/a	n/a	n/a	n/a	n/a	n/a	n/a	n/a	n/a	n/a	n/a	n/a	n/a	n/a	n/a	n/a	n/a	n/a	n/a	n/a	n/a	7	n/a	n/a
185.6	0.8	n/a	n/a	n/a	n/a	n/a	n/a	n/a	n/a	n/a	n/a	n/a	n/a	n/a	n/a	n/a	n/a	n/a	n/a	n/a	n/a	n/a	n/a	n/a	n/a	n/a	n/a	n/a	n/a	n/a	n/a	n/a	n/a	n/a	n/a	n/a	n/a	n/a	n/a	n/a	n/a	n/a	n/a	n/a	n/a	n/a	n/a	n/a	n/a	5	n/a	n/a
187.2	0.8	n/a	n/a	n/a	n/a	n/a	n/a	n/a	n/a	n/a	n/a	n/a	n/a	n/a	n/a	n/a	n/a	n/a	n/a	n/a	n/a	n/a	n/a	n/a	n/a	n/a	n/a	n/a	n/a	n/a	n/a	n/a	n/a	n/a	n/a	n/a	n/a	n/a	n/a	n/a	n/a	n/a	n/a	n/a	n/a	n/a	n/a	n/a	n/a	5	n/a	n/a
188.8	0.8	n/a	n/a	n/a	n/a	n/a	n/a	n/a	n/a	n/a	n/a	n/a	n/a	n/a	n/a	n/a	n/a	n/a	n/a	n/a	n/a	n/a	n/a	n/a	n/a	n/a	n/a	n/a	n/a	n/a	n/a	n/a	n/a	n/a	n/a	n/a	n/a	n/a	n/a	n/a	n/a	n/a	n/a	n/a	n/a	n/a	n/a	n/a	n/a	7	n/a	n/a
190.4	0.8	n/a	n/a	n/a	n/a	n/a	n/a	n/a	n/a	n/a	n/a	n/a	n/a	n/a	n/a	n/a	n/a	n/a	n/a	n/a	n/a	n/a	n/a	n/a	n/a	n/a	n/a	n/a	n/a	n/a	n/a	n/a	n/a	n/a	n/a	n/a	n/a	n/a	n/a	n/a	n/a	n/a	n/a	n/a	n/a	n/a	n/a	n/a	n/a	5	n/a	n/a
192	0.8	n/a	n/a	n/a	n/a	n/a	n/a	n/a	n/a	n/a	n/a	n/a	n/a	n/a	n/a	n/a	n/a	n/a	n/a	n/a	n/a	n/a	n/a	n/a	n/a	n/a	n/a	n/a	n/a	n/a	n/a	n/a	n/a	n/a	n/a	n/a	n/a	n/a	n/a	n/a	n/a	n/a	n/a	n/a	n/a	n/a	n/a	n/a	n/a	7	n/a	n/a
193.6	0.8	n/a	n/a	n/a	n/a	n/a	n/a	n/a	n/a	n/a	n/a	n/a	n/a	n/a	n/a	n/a	n/a	n/a	n/a	n/a	n/a	n/a	n/a	n/a	n/a	n/a	n/a	n/a	n/a	n/a	n/a	n/a	n/a	n/a	n/a	n/a	n/a	n/a	n/a	n/a	n/a	n/a	n/a	n/a	n/a	n/a	n/a	n/a	n/a	5	n/a	n/a
195.2	0.8	n/a	n/a	n/a	n/a	n/a	n/a	n/a	n/a	n/a	n/a	n/a	n/a	n/a	n/a	n/a	n/a	n/a	n/a	n/a	n/a	n/a	n/a	n/a	n/a	n/a	n/a	n/a	n/a	n/a	n/a	n/a	n/a	n/a	n/a	n/a	n/a	n/a	n/a	n/a	n/a	n/a	n/a	n/a	n/a	n/a	n/a	n/a	n/a	7	n/a	n/a
196.8	0.8	n/a	n/a	n/a	n/a	n/a	n/a	n/a	n/a	n/a	n/a	n/a	n/a	n/a	n/a	n/a	n/a	n/a	n/a	n/a	n/a	n/a	n/a	n/a	n/a	n/a	n/a	n/a	n/a	n/a	n/a	n/a	n/a	n/a	n/a	n/a	n/a	n/a	n/a	n/a	n/a	n/a	n/a	n/a	n/a	n/a	n/a	n/a	n/a	5	n/a	n/a
198.4	0.8	n/a	n/a	n/a	n/a	n/a	n/a	n/a	n/a	n/a	n/a	n/a	n/a	n/a	n/a	n/a	n/a	n/a	n/a	n/a	n/a	n/a	n/a	n/a	n/a	n/a	n/a	n/a	n/a	n/a	n/a	n/a	n/a	n/a	n/a	n/a	n/a	n/a	n/a	n/a	n/a	n/a	n/a	n/a	n/a	n/a	n/a	n/a	n/a	7	n/a	n/a
200	0.8	n/a	n/a	n/a	n/a	n/a	n/a	n/a	n/a	n/a	n/a	n/a	n/a	n/a	n/a	n/a	n/a	n/a	n/a	n/a	n/a	n/a	n/a	n/a	n/a	n/a	n/a	n/a	n/a	n/a	n/a	n/a	n/a	n/a	n/a	n/a	n/a	n/a	n/a	n/a	n/a	n/a	n/a	n/a	n/a	n/a	n/a	n/a	n/a	5	n/a	n/a
201.6	0.8	n/a	n/a	n/a	n/a	n/a	n/a	n/a	n/a	n/a	n/a	n/a	n/a	n/a	n/a	n/a	n/a	n/a	n/a	n/a	n/a	n/a	n/a	n/a	n/a	n/a	n/a	n/a	n/a	n/a	n/a	n/a	n/a	n/a	n/a	n/a	n/a	n/a	n/a	n/a	n/a	n/a	n/a	n/a	n/a	n/a	n/a	n/a	n/a	5	n/a	n/a
203.2	0.8	n/a	n/a	n/a	n/a	n/a	n/a	n/a	n/a	n/a	n/a	n/a	n/a	n/a	n/a	n/a	n/a	n/a	n/a	n/a	n/a	n/a	n/a	n/a	n/a	n/a	n/a	n/a	n/a	n/a	n/a	n/a	n/a	n/a	n/a	n/a	n/a	n/a	n/a	n/a	n/a	n/a	n/a	n/a	n/a	n/a	n/a	n/a	n/a	5	n/a	n/a
204.8	0.8	n/a	n/a	n/a	n/a	n/a	n/a	n/a	n/a	n/a	n/a	n/a	n/a	n/a	n/a	n/a	n/a	n/a	n/a	n/a	n/a	n/a	n/a	n/a	n/a	n/a	n/a	n/a	n/a	n/a	n/a	n/a	n/a	n/a	n/a	n/a	n/a	n/a	n/a	n/a	n/a	n/a	n/a	n/a	n/a	n/a	n/a	n/a	n/a	7	n/a	n/a
206.4	0.8	n/a	n/a	n/a	n/a	n/a	n/a	n/a	n/a	n/a	n/a	n/a	n/a	n/a	n/a	n/a	n/a	n/a	n/a	n/a	n/a	n/a	n/a	n/a	n/a	n/a	n/a	n/a	n/a	n/a	n/a	n/a	n/a	n/a	n/a	n/a	n/a	n/a	n/a	n/a	n/a	n/a	n/a	n/a	n/a	n/a	n/a	n/a	n/a	7	n/a	n/a
208	0.8	n/a	n/a	n/a	n/a	n/a	n/a	n/a	n/a	n/a	n/a	n/a	n/a	n/a	n/a	n/a	n/a	n/a	n/a	n/a	n/a	n/a	n/a	n/a	n/a	n/a	n/a	n/a	n/a	n/a	n/a	n/a	n/a	n/a	n/a	n/a	n/a	n/a	n/a	n/a	n/a	n/a	n/a	n/a	n/a	n/a	n/a	n/a	n/a	7	n/a	n/a
209.6	0.8	n/a	n/a	n/a	n/a	n/a	n/a	n/a	n/a	n/a	n/a	n/a	n/a	n/a	n/a	n/a	n/a	n/a	n/a	n/a	n/a	n/a	n/a	n/a	n/a	n/a	n/a	n/a	n/a	n/a	n/a	n/a	n/a	n/a	n/a	n/a	n/a	n/a	n/a	n/a	n/a	n/a	n/a	n/a	n/a	n/a	n/a	n/a	n/a	5	n/a	n/a
211.2	0.8	n/a	n/a	n/a	n/a	n/a	n/a	n/a	n/a	n/a	n/a	n/a	n/a	n/a	n/a	n/a	n/a	n/a	n/a	n/a	n/a	n/a	n/a	n/a	n/a	n/a	n/a	n/a	n/a	n/a	n/a	n/a	n/a	n/a	n/a	n/a	n/a	n/a	n/a	n/a	n/a	n/a	n/a	n/a	n/a	n/a	n/a	n/a	n/a	7	n/a	n/a
212.8	0.8	n/a	n/a	n/a	n/a	n/a	n/a	n/a	n/a	n/a	n/a	n/a	n/a	n/a	n/a	n/a	n/a	n/a	n/a	n/a	n/a	n/a	n/a	n/a	n/a	n/a	n/a	n/a	n/a	n/a	n/a	n/a	n/a	n/a	n/a	n/a	n/a	n/a	n/a	n/a	n/a	n/a	n/a	n/a	n/a	n/a	n/a	n/a	n/a	7	n/a	n/a
214.4	0.8	n/a	n/a	n/a	n/a	n/a	n/a	n/a	n/a	n/a	n/a	n/a	n/a	n/a	n/a	n/a	n/a	n/a	n/a	n/a	n/a	n/a	n/a	n/a	n/a	n/a	n/a	n/a	n/a	n/a	n/a	n/a	n/a	n/a	n/a	n/a	n/a	n/a	n/a	n/a	n/a	n/a	n/a	n/a	n/a	n/a	n/a	n/a	n/a	5	n/a	n/a
216	0.8	n/a	n/a	n/a	n/a	n/a	n/a	n/a	n/a	n/a	n/a	n/a	n/a	n/a	n/a	n/a	n/a	n/a	n/a	n/a	n/a	n/a	n/a	n/a	n/a	n/a	n/a	n/a	n/a	n/a	n/a	n/a	n/a	n/a	n/a	n/a	n/a	n/a	n/a	n/a	n/a	n/a	n/a	n/a	n/a	n/a	n/a	n/a	n/a	7	n/a	n/a
217.6	0.8	n/a	n/a	n/a	n/a	n/a	n/a	n/a	n/a	n/a	n/a	n/a	n/a	n/a	n/a	n/a	n/a	n/a	n/a	n/a	n/a	n/a	n/a	n/a	n/a	n/a	n/a	n/a	n/a	n/a	n/a	n/a	n/a	n/a	n/a	n/a	n/a	n/a	n/a	n/a	n/a	n/a	n/a	n/a	n/a	n/a	n/a	n/a	n/a	7	n/a	n/a
219.2	0.8	n/a	n/a	n/a	n/a	n/a	n/a	n/a	n/a	n/a	n/a	n/a	n/a	n/a	n/a	n/a	n/a	n/a	n/a	n/a	n/a	n/a	n/a	n/a	n/a	n/a	n/a	n/a	n/a	n/a	n/a	n/a	n/a	n/a	n/a	n/a	n/a	n/a	n/a	n/a	n/a	n/a	n/a	n/a	n/a	n/a	n/a	n/a	n/a	5	n/a	n/a
220.8	0.8	n/a	n/a	n/a	n/a	n/a	n/a	n/a	n/a	n/a	n/a	n/a	n/a	n/a	n/a	n/a	n/a	n/a	n/a	n/a	n/a	n/a	n/a	n/a	n/a	n/a	n/a	n/a	n/a	n/a	n/a	n/a	n/a	n/a	n/a	n/a	n/a	n/a	n/a	n/a	n/a	n/a	n/a	n/a	n/a	n/a	n/a	n/a	n/a	7	n/a	n/a
222.4	0.8	n/a	n/a	n/a	n/a	n/a	n/a	n/a	n/a	n/a	n/a	n/a	n/a	n/a	n/a	n/a	n/a	n/a	n/a	n/a	n/a	n/a	n/a	n/a	n/a	n/a	n/a	n/a	n/a	n/a	n/a	n/a	n/a	n/a	n/a	n/a	n/a	n/a	n/a	n/a	n/a	n/a	n/a	n/a	n/a	n/a	n/a	n/a	n/a	7	n/a	n/a
224	0.8	n/a	n/a	n/a	n/a	n/a	n/a	n/a	n/a	n/a	n/a	n/a	n/a	n/a	n/a	n/a	n/a	n/a	n/a	n/a	n/a	n/a	n/a	n/a	n/a	n/a	n/a	n/a	n/a	n/a	n/a	n/a	n/a	n/a	n/a	n/a	n/a	n/a	n/a	n/a	n/a	n/a	n/a	n/a	n/a	n/a	n/a	n/a	n/a	7	n/a	n/a
225.6	0.8	n/a	n/a	n/a	n/a	n/a	n/a	n/a	n/a	n/a	n/a	n/a	n/a	n/a	n/a	n/a	n/a	n/a	n/a	n/a	n/a	n/a	n/a	n/a	n/a	n/a	n/a	n/a	n/a	n/a	n/a	n/a	n/a	n/a	n/a	n/a	n/a	n/a	n/a	n/a	n/a	n/a	n/a	n/a	n/a	n/a	n/a	n/a	n/a	5	n/a	n/a
227.2	0.8	n/a	n/a	n/a	n/a	n/a	n/a	n/a	n/a	n/a	n/a	n/a	n/a	n/a	n/a	n/a	n/a	n/a	n/a	n/a	n/a	n/a	n/a	n/a	n/a	n/a	n/a	n/a	n/a	n/a	n/a	n/a	n/a	n/a	n/a	n/a	n/a	n/a	n/a	n/a	n/a	n/a	n/a	n/a	n/a	n/a	n/a	n/a	n/a	5	n/a	n/a
228.8	0.8	n/a	n/a	n/a	n/a	n/a	n/a	n/a	n/a	n/a	n/a	n/a	n/a	n/a	n/a	n/a	n/a	n/a	n/a	n/a	n/a	n/a	n/a	n/a	n/a	n/a	n/a	n/a	n/a	n/a	n/a	n/a	n/a	n/a	n/a	n/a	n/a	n/a	n/a	n/a	n/a	n/a	n/a	n/a	n/a	n/a	n/a	n/a	n/a	5	n/a	n/a
230.4	0.8	n/a	n/a	n/a	n/a	n/a	n/a	n/a	n/a	n/a	n/a	n/a	n/a	n/a	n/a	n/a	n/a	n/a	n/a	n/a	n/a	n/a	n/a	n/a	n/a	n/a	n/a	n/a	n/a	n/a	n/a	n/a	n/a	n/a	n/a	n/a	n/a	n/a	n/a	n/a	n/a	n/a	n/a	n/a	n/a	n/a	n/a	n/a	n/a	7	n/a	n/a
232	0.8	n/a	n/a	n/a	n/a	n/a	n/a	n/a	n/a	n/a	n/a	n/a	n/a	n/a	n/a	n/a	n/a	n/a	n/a	n/a	n/a	n/a	n/a	n/a	n/a	n/a	n/a	n/a	n/a	n/a	n/a	n/a	n/a	n/a	n/a	n/a	n/a	n/a	n/a	n/a	n/a	n/a	n/a	n/a	n/a	n/a	n/a	n/a	n/a	7	n/a	n/a
233.6	0.8	n/a	n/a	n/a	n/a	n/a	n/a	n/a	n/a	n/a	n/a	n/a	n/a	n/a	n/a	n/a	n/a	n/a	n/a	n/a	n/a	n/a	n/a	n/a	n/a	n/a	n/a	n/a	n/a	n/a	n/a	n/a	n/a	n/a	n/a	n/a	n/a	n/a	n/a	n/a	n/a	n/a	n/a	n/a	n/a	n/a	n/a	n/a	n/a	7	n/a	n/a
235.2	0.8	n/a	n/a	n/a	n/a	n/a	n/a	n/a	n/a	n/a	n/a	n/a	n/a	n/a	n/a	n/a	n/a	n/a	n/a	n/a	n/a	n/a	n/a	n/a	n/a	n/a	n/a	n/a	n/a	n/a	n/a	n/a	n/a	n/a	n/a	n/a	n/a	n/a	n/a	n/a	n/a	n/a	n/a	n/a	n/a	n/a	n/a	n/a	n/a	5	n/a	n/a
236.8	0.8	n/a	n/a	n/a	n/a	n/a	n/a	n/a	n/a	n/a	n/a	n/a	n/a	n/a	n/a	n/a	n/a	n/a	n/a	n/a	n/a	n/a	n/a	n/a	n/a	n/a	n/a	n/a	n/a	n/a	n/a	n/a	n/a	n/a	n/a	n/a	n/a	n/a	n/a	n/a	n/a	n/a	n/a	n/a	n/a	n/a	n/a	n/a	n/a	7	n/a	n/a
238.4	0.8	n/a	n/a	n/a	n/a	n/a	n/a	n/a	n/a	n/a	n/a	n/a	n/a	n/a	n/a	n/a	n/a	n/a	n/a	n/a	n/a	n/a	n/a	n/a	n/a	n/a	n/a	n/a	n/a	n/a	n/a	n/a	n/a	n/a	n/a	n/a	n/a	n/a	n/a	n/a	n/a	n/a	n/a	n/a	n/a	n/a	n/a	n/a	n/a	7	n/a	n/a
240	0.8	n/a	n/a	n/a	n/a	n/a	n/a	n/a	n/a	n/a	n/a	n/a	n/a	n/a	n/a	n/a	n/a	n/a	n/a	n/a	n/a	n/a	n/a	n/a	n/a	n/a	n/a	n/a	n/a	n/a	n/a	n/a	n/a	n/a	n/a	n/a	n/a	n/a	n/a	n/a	n/a	n/a	n/a	n/a	n/a	n/a	n/a	n/a	n/a	7	n/a	n/a
241.6	0.8	n/a	n/a	n/a	n/a	n/a	n/a	n/a	n/a	n/a	n/a	n/a	n/a	n/a	n/a	n/a	n/a	n/a	n/a	n/a	n/a	n/a	n/a	n/a	n/a	n/a	n/a	n/a	n/a	n/a	n/a	n/a	n/a	n/a	n/a	n/a	n/a	n/a	n/a	n/a	n/a	n/a	n/a	n/a	n/a	n/a	n/a	n/a	n/a	5	n/a	n/a
243.2	0.8	n/a	n/a	n/a	n/a	n/a	n/a	n/a	n/a	n/a	n/a	n/a	n/a	n/a	n/a	n/a	n/a	n/a	n/a	n/a	n/a	n/a	n/a	n/a	n/a	n/a	n/a	n/a	n/a	n/a	n/a	n/a	n/a	n/a	n/a	n/a	n/a	n/a	n/a	n/a	n/a	n/a	n/a	n/a	n/a	n/a	n/a	n/a	n/a	7	n/a	n/a
244.8	0.8	n/a	n/a	n/a	n/a	n/a	n/a	n/a	n/a	n/a	n/a	n/a	n/a	n/a	n/a	n/a	n/a	n/a	n/a	n/a	n/a	n/a	n/a	n/a	n/a	n/a	n/a	n/a	n/a	n/a	n/a	n/a	n/a	n/a	n/a	n/a	n/a	n/a	n/a	n/a	n/a	n/a	n/a	n/a	n/a	n/a	n/a	n/a	n/a	7	n/a	n/a
246.4	0.8	n/a	n/a	n/a	n/a	n/a	n/a	n/a	n/a	n/a	n/a	n/a	n/a	n/a	n/a	n/a	n/a	n/a	n/a	n/a	n/a	n/a	n/a	n/a	n/a	n/a	n/a	n/a	n/a	n/a	n/a	n/a	n/a	n/a	n/a	n/a	n/a	n/a	n/a	n/a	n/a	n/a	n/a	n/a	n/a	n/a	n/a	n/a	n/a	7	n/a	n/a
248	0.8	n/a	n/a	n/a	n/a	n/a	n/a	n/a	n/a	n/a	n/a	n/a	n/a	n/a	n/a	n/a	n/a	n/a	n/a	n/a	n/a	n/a	n/a	n/a	n/a	n/a	n/a	n/a	n/a	n/a	n/a	n/a	n/a	n/a	n/a	n/a	n/a	n/a	n/a	n/a	n/a	n/a	n/a	n/a	n/a	n/a	n/a	n/a	n/a	5	n/a	n/a
249.6	0.8	n/a	n/a	n/a	n/a	n/a	n/a	n/a	n/a	n/a	n/a	n/a	n/a	n/a	n/a	n/a	n/a	n/a	n/a	n/a	n/a	n/a	n/a	n/a	n/a	n/a	n/a	n/a	n/a	n/a	n/a	n/a	n/a	n/a	n/a	n/a	n/a	n/a	n/a	n/a	n/a	n/a	n/a	n/a	n/a	n/a	n/a	n/a	n/a	5	n/a	n/a
251.2	0.8	n/a	n/a	n/a	n/a	n/a	n/a	n/a	n/a	n/a	n/a	n/a	n/a	n/a	n/a	n/a	n/a	n/a	n/a	n/a	n/a	n/a	n/a	n/a	n/a	n/a	n/a	n/a	n/a	n/a	n/a	n/a	n/a	n/a	n/a	n/a	n/a	n/a	n/a	n/a	n/a	n/a	n/a	n/a	n/a	n/a	n/a	n/a	n/a	5	n/a	n/a
252.8	0.8	n/a	n/a	n/a	n/a	n/a	n/a	n/a	n/a	n/a	n/a	n/a	n/a	n/a	n/a	n/a	n/a	n/a	n/a	n/a	n/a	n/a	n/a	n/a	n/a	n/a	n/a	n/a	n/a	n/a	n/a	n/a	n/a	n/a	n/a	n/a	n/a	n/a	n/a	n/a	n/a	n/a	n/a	n/a	n/a	n/a	n/a	n/a	n/a	7	n/a	n/a
254.4	0.8	n/a	n/a	n/a	n/a	n/a	n/a	n/a	n/a	n/a	n/a	n/a	n/a	n/a	n/a	n/a	n/a	n/a	n/a	n/a	n/a	n/a	n/a	n/a	n/a	n/a	n/a	n/a	n/a	n/a	n/a	n/a	n/a	n/a	n/a	n/a	n/a	n/a	n/a	n/a	n/a	n/a	n/a	n/a	n/a	n/a	n/a	n/a	n/a	5	n/a	n/a
256	0.8	n/a	n/a	n/a	n/a	n/a	n/a	n/a	n/a	n/a	n/a	n/a	n/a	n/a	n/a	n/a	n/a	n/a	n/a	n/a	n/a	n/a	n/a	n/a	n/a	n/a	n/a	n/a	n/a	n/a	n/a	n/a	n/a	n/a	n/a	n/a	n/a	n/a	n/a	n/a	n/a	n/a	n/a	n/a	n/a	n/a	n/a	n/a	n/a	7	n/a	n/a
257.6	0.8	n/a	n/a	n/a	n/a	n/a	n/a	n/a	n/a	n/a	n/a	n/a	n/a	n/a	n/a	n/a	n/a	n/a	n/a	n/a	n/a	n/a	n/a	n/a	n/a	n/a	n/a	n/a	n/a	n/a	n/a	n/a	n/a	n/a	n/a	n/a	n/a	n/a	n/a	n/a	n/a	n/a	n/a	n/a	n/a	n/a	n/a	n/a	n/a	5	n/a	n/a
259.2	0.8	n/a	n/a	n/a	n/a	n/a	n/a	n/a	n/a	n/a	n/a	n/a	n/a	n/a	n/a	n/a	n/a	n/a	n/a	n/a	n/a	n/a	n/a	n/a	n/a	n/a	n/a	n/a	n/a	n/a	n/a	n/a	n/a	n/a	n/a	n/a	n/a	n/a	n/a	n/a	n/a	n/a	n/a	n/a	n/a	n/a	n/a	n/a	n/a	5	n/a	n/a
260.8	0.8	n/a	n/a	n/a	n/a	n/a	n/a	n/a	n/a	n/a	n/a	n/a	n/a	n/a	n/a	n/a	n/a	n/a	n/a	n/a	n/a	n/a	n/a	n/a	n/a	n/a	n/a	n/a	n/a	n/a	n/a	n/a	n/a	n/a	n/a	n/a	n/a	n/a	n/a	n/a	n/a	n/a	n/a	n/a	n/a	n/a	n/a	n/a	n/a	5	n/a	n/a
262.4	0.8	n/a	n/a	n/a	n/a	n/a	n/a	n/a	n/a	n/a	n/a	n/a	n/a	n/a	n/a	n/a	n/a	n/a	n/a	n/a	n/a	n/a	n/a	n/a	n/a	n/a	n/a	n/a	n/a	n/a	n/a	n/a	n/a	n/a	n/a	n/a	n/a	n/a	n/a	n/a	n/a	n/a	n/a	n/a	n/a	n/a	n/a	n/a	n/a	7	n/a	n/a
264	0.8	n/a	n/a	n/a	n/a	n/a	n/a	n/a	n/a	n/a	n/a	n/a	n/a	n/a	n/a	n/a	n/a	n/a	n/a	n/a	n/a	n/a	n/a	n/a	n/a	n/a	n/a	n/a	n/a	n/a	n/a	n/a	n/a	n/a	n/a	n/a	n/a	n/a	n/a	n/a	n/a	n/a	n/a	n/a	n/a	n/a	n/a	n/a	n/a	7	n/a	n/a
265.6	0.8	n/a	n/a	n/a	n/a	n/a	n/a	n/a	n/a	n/a	n/a	n/a	n/a	n/a	n/a	n/a	n/a	n/a	n/a	n/a	n/a	n/a	n/a	n/a	n/a	n/a	n/a	n/a	n/a	n/a	n/a	n/a	n/a	n/a	n/a	n/a	n/a	n/a	n/a	n/a	n/a	n/a	n/a	n/a	n/a	n/a	n/a	n/a	n/a	7	n/a	n/a
267.2	0.8	n/a	n/a	n/a	n/a	n/a	n/a	n/a	n/a	n/a	n/a	n/a	n/a	n/a	n/a	n/a	n/a	n/a	n/a	n/a	n/a	n/a	n/a	n/a	n/a	n/a	n/a	n/a	n/a	n/a	n/a	n/a	n/a	n/a	n/a	n/a	n/a	n/a	n/a	n/a	n/a	n/a	n/a	n/a	n/a	n/a	n/a	n/a	n/a	5	n/a	n/a
268.8	0.8	n/a	n/a	n/a	n/a	n/a	n/a	n/a	n/a	n/a	n/a	n/a	n/a	n/a	n/a	n/a	n/a	n/a	n/a	n/a	n/a	n/a	n/a	n/a	n/a	n/a	n/a	n/a	n/a	n/a	n/a	n/a	n/a	n/a	n/a	n/a	n/a	n/a	n/a	n/a	n/a	n/a	n/a	n/a	n/a	n/a	n/a	n/a	n/a	7	n/a	n/a
270.4	0.8	n/a	n/a	n/a	n/a	n/a	n/a	n/a	n/a	n/a	n/a	n/a	n/a	n/a	n/a	n/a	n/a	n/a	n/a	n/a	n/a	n/a	n/a	n/a	n/a	n/a	n/a	n/a	n/a	n/a	n/a	n/a	n/a	n/a	n/a	n/a	n/a	n/a	n/a	n/a	n/a	n/a	n/a	n/a	n/a	n/a	n/a	n/a	n/a	7	n/a	n/a
272	0.8	n/a	n/a	n/a	n/a	n/a	n/a	n/a	n/a	n/a	n/a	n/a	n/a	n/a	n/a	n/a	n/a	n/a	n/a	n/a	n/a	n/a	n/a	n/a	n/a	n/a	n/a	n/a	n/a	n/a	n/a	n/a	n/a	n/a	n/a	n/a	n/a	n/a	n/a	n/a	n/a	n/a	n/a	n/a	n/a	n/a	n/a	n/a	n/a	5	n/a	n/a
273.6	0.8	n/a	n/a	n/a	n/a	n/a	n/a	n/a	n/a	n/a	n/a	n/a	n/a	n/a	n/a	n/a	n/a	n/a	n/a	n/a	n/a	n/a	n/a	n/a	n/a	n/a	n/a	n/a	n/a	n/a	n/a	n/a	n/a	n/a	n/a	n/a	n/a	n/a	n/a	n/a	n/a	n/a	n/a	n/a	n/a	n/a	n/a	n/a	n/a	5	n/a	n/a
275.2	0.8	n/a	n/a	n/a	n/a	n/a	n/a	n/a	n/a	n/a	n/a	n/a	n/a	n/a	n/a	n/a	n/a	n/a	n/a	n/a	n/a	n/a	n/a	n/a	n/a	n/a	n/a	n/a	n/a	n/a	n/a	n/a	n/a	n/a	n/a	n/a	n/a	n/a	n/a	n/a	n/a	n/a	n/a	n/a	n/a	n/a	n/a	n/a	n/a	7	n/a	n/a
276.8	0.8	n/a	n/a	n/a	n/a	n/a	n/a	n/a	n/a	n/a	n/a	n/a	n/a	n/a	n/a	n/a	n/a	n/a	n/a	n/a	n/a	n/a	n/a	n/a	n/a	n/a	n/a	n/a	n/a	n/a	n/a	n/a	n/a	n/a	n/a	n/a	n/a	n/a	n/a	n/a	n/a	n/a	n/a	n/a	n/a	n/a	n/a	n/a	n/a	5	n/a	n/a
278.4	0.8	n/a	n/a	n/a	n/a	n/a	n/a	n/a	n/a	n/a	n/a	n/a	n/a	n/a	n/a	n/a	n/a	n/a	n/a	n/a	n/a	n/a	n/a	n/a	n/a	n/a	n/a	n/a	n/a	n/a	n/a	n/a	n/a	n/a	n/a	n/a	n/a	n/a	n/a	n/a	n/a	n/a	n/a	n/a	n/a	n/a	n/a	n/a	n/a	7	n/a	n/a
280	0.8	n/a	n/a	n/a	n/a	n/a	n/a	n/a	n/a	n/a	n/a	n/a	n/a	n/a	n/a	n/a	n/a	n/a	n/a	n/a	n/a	n/a	n/a	n/a	n/a	n/a	n/a	n/a	n/a	n/a	n/a	n/a	n/a	n/a	n/a	n/a	n/a	n/a	n/a	n/a	n/a	n/a	n/a	n/a	n/a	n/a	n/a	n/a	n/a	5	n/a	n/a
281.6	0.8	n/a	n/a	n/a	n/a	n/a	n/a	n/a	n/a	n/a	n/a	n/a	n/a	n/a	n/a	n/a	n/a	n/a	n/a	n/a	n/a	n/a	n/a	n/a	n/a	n/a	n/a	n/a	n/a	n/a	n/a	n/a	n/a	n/a	n/a	n/a	n/a	n/a	n/a	n/a	n/a	n/a	n/a	n/a	n/a	n/a	n/a	n/a	n/a	7	n/a	n/a
283.2	0.8	n/a	n/a	n/a	n/a	n/a	n/a	n/a	n/a	n/a	n/a	n/a	n/a	n/a	n/a	n/a	n/a	n/a	n/a	n/a	n/a	n/a	n/a	n/a	n/a	n/a	n/a	n/a	n/a	n/a	n/a	n/a	n/a	n/a	n/a	n/a	n/a	n/a	n/a	n/a	n/a	n/a	n/a	n/a	n/a	n/a	n/a	n/a	n/a	5	n/a	n/a
284.8	0.8	n/a	n/a	n/a	n/a	n/a	n/a	n/a	n/a	n/a	n/a	n/a	n/a	n/a	n/a	n/a	n/a	n/a	n/a	n/a	n/a	n/a	n/a	n/a	n/a	n/a	n/a	n/a	n/a	n/a	n/a	n/a	n/a	n/a	n/a	n/a	n/a	n/a	n/a	n/a	n/a	n/a	n/a	n/a	n/a	n/a	n/a	n/a	n/a	5	n/a	n/a
286.4	0.8	n/a	n/a	n/a	n/a	n/a	n/a	n/a	n/a	n/a	n/a	n/a	n/a	n/a	n/a	n/a	n/a	n/a	n/a	n/a	n/a	n/a	n/a	n/a	n/a	n/a	n/a	n/a	n/a	n/a	n/a	n/a	n/a	n/a	n/a	n/a	n/a	n/a	n/a	n/a	n/a	n/a	n/a	n/a	n/a	n/a	n/a	n/a	n/a	5	n/a	n/a
288	0.8	n/a	n/a	n/a	n/a	n/a	n/a	n/a	n/a	n/a	n/a	n/a	n/a	n/a	n/a	n/a	n/a	n/a	n/a	n/a	n/a	n/a	n/a	n/a	n/a	n/a	n/a	n/a	n/a	n/a	n/a	n/a	n/a	n/a	n/a	n/a	n/a	n/a	n/a	n/a	n/a	n/a	n/a	n/a	n/a	n/a	n/a	n/a	n/a	7	n/a	n/a
289.6	0.8	n/a	n/a	n/a	n/a	n/a	n/a	n/a	n/a	n/a	n/a	n/a	n/a	n/a	n/a	n/a	n/a	n/a	n/a	n/a	n/a	n/a	n/a	n/a	n/a	n/a	n/a	n/a	n/a	n/a	n/a	n/a	n/a	n/a	n/a	n/a	n/a	n/a	n/a	n/a	n/a	n/a	n/a	n/a	n/a	n/a	n/a	n/a	n/a	5	n/a	n/a
291.2	0.8	n/a	n/a	n/a	n/a	n/a	n/a	n/a	n/a	n/a	n/a	n/a	n/a	n/a	n/a	n/a	n/a	n/a	n/a	n/a	n/a	n/a	n/a	n/a	n/a	n/a	n/a	n/a	n/a	n/a	n/a	n/a	n/a	n/a	n/a	n/a	n/a	n/a	n/a	n/a	n/a	n/a	n/a	n/a	n/a	n/a	n/a	n/a	n/a	7	n/a	n/a
292.8	0.8	n/a	n/a	n/a	n/a	n/a	n/a	n/a	n/a	n/a	n/a	n/a	n/a	n/a	n/a	n/a	n/a	n/a	n/a	n/a	n/a	n/a	n/a	n/a	n/a	n/a	n/a	n/a	n/a	n/a	n/a	n/a	n/a	n/a	n/a	n/a	n/a	n/a	n/a	n/a	n/a	n/a	n/a	n/a	n/a	n/a	n/a	n/a	n/a	5	n/a	n/a
294.4	0.8	n/a	n/a	n/a	n/a	n/a	n/a	n/a	n/a	n/a	n/a	n/a	n/a	n/a	n/a	n/a	n/a	n/a	n/a	n/a	n/a	n/a	n/a	n/a	n/a	n/a	n/a	n/a	n/a	n/a	n/a	n/a	n/a	n/a	n/a	n/a	n/a	n/a	n/a	n/a	n/a	n/a	n/a	n/a	n/a	n/a	n/a	n/a	n/a	5	n/a	n/a
296	0.8	n/a	n/a	n/a	n/a	n/a	n/a	n/a	n/a	n/a	n/a	n/a	n/a	n/a	n/a	n/a	n/a	n/a	n/a	n/a	n/a	n/a	n/a	n/a	n/a	n/a	n/a	n/a	n/a	n/a	n/a	n/a	n/a	n/a	n/a	n/a	n/a	n/a	n/a	n/a	n/a	n/a	n/a	n/a	n/a	n/a	n/a	n/a	n/a	5	n/a	n/a
297.6	0.8	n/a	n/a	n/a	n/a	n/a	n/a	n/a	n/a	n/a	n/a	n/a	n/a	n/a	n/a	n/a	n/a	n/a	n/a	n/a	n/a	n/a	n/a	n/a	n/a	n/a	n/a	n/a	n/a	n/a	n/a	n/a	n/a	n/a	n/a	n/a	n/a	n/a	n/a	n/a	n/a	n/a	n/a	n/a	n/a	n/a	n/a	n/a	n/a	7	n/a	n/a
299.2	0.8	n/a	n/a	n/a	n/a	n/a	n/a	n/a	n/a	n/a	n/a	n/a	n/a	n/a	n/a	n/a	n/a	n/a	n/a	n/a	n/a	n/a	n/a	n/a	n/a	n/a	n/a	n/a	n/a	n/a	n/a	n/a	n/a	n/a	n/a	n/a	n/a	n/a	n/a	n/a	n/a	n/a	n/a	n/a	n/a	n/a	n/a	n/a	n/a	5	n/a	n/a
300.8	0.8	n/a	n/a	n/a	n/a	n/a	n/a	n/a	n/a	n/a	n/a	n/a	n/a	n/a	n/a	n/a	n/a	n/a	n/a	n/a	n/a	n/a	n/a	n/a	n/a	n/a	n/a	n/a	n/a	n/a	n/a	n/a	n/a	n/a	n/a	n/a	n/a	n/a	n/a	n/a	n/a	n/a	n/a	n/a	n/a	n/a	n/a	n/a	n/a	7	n/a	n/a
302.4	0.8	n/a	n/a	n/a	n/a	n/a	n/a	n/a	n/a	n/a	n/a	n/a	n/a	n/a	n/a	n/a	n/a	n/a	n/a	n/a	n/a	n/a	n/a	n/a	n/a	n/a	n/a	n/a	n/a	n/a	n/a	n/a	n/a	n/a	n/a	n/a	n/a	n/a	n/a	n/a	n/a	n/a	n/a	n/a	n/a	n/a	n/a	n/a	n/a	7	n/a	n/a
304	0.8	n/a	n/a	n/a	n/a	n/a	n/a	n/a	n/a	n/a	n/a	n/a	n/a	n/a	n/a	n/a	n/a	n/a	n/a	n/a	n/a	n/a	n/a	n/a	n/a	n/a	n/a	n/a	n/a	n/a	n/a	n/a	n/a	n/a	n/a	n/a	n/a	n/a	n/a	n/a	n/a	n/a	n/a	n/a	n/a	n/a	n/a	n/a	n/a	7	n/a	n/a
305.6	0.8	n/a	n/a	n/a	n/a	n/a	n/a	n/a	n/a	n/a	n/a	n/a	n/a	n/a	n/a	n/a	n/a	n/a	n/a	n/a	n/a	n/a	n/a	n/a	n/a	n/a	n/a	n/a	n/a	n/a	n/a	n/a	n/a	n/a	n/a	n/a	n/a	n/a	n/a	n/a	n/a	n/a	n/a	n/a	n/a	n/a	n/a	n/a	n/a	5	n/a	n/a
307.2	0.8	n/a	n/a	n/a	n/a	n/a	n/a	n/a	n/a	n/a	n/a	n/a	n/a	n/a	n/a	n/a	n/a	n/a	n/a	n/a	n/a	n/a	n/a	n/a	n/a	n/a	n/a	n/a	n/a	n/a	n/a	n/a	n/a	n/a	n/a	n/a	n/a	n/a	n/a	n/a	n/a	n/a	n/a	n/a	n/a	n/a	n/a	n/a	n/a	7	n/a	n/a
308.8	0.8	n/a	n/a	n/a	n/a	n/a	n/a	n/a	n/a	n/a	n/a	n/a	n/a	n/a	n/a	n/a	n/a	n/a	n/a	n/a	n/a	n/a	n/a	n/a	n/a	n/a	n/a	n/a	n/a	n/a	n/a	n/a	n/a	n/a	n/a	n/a	n/a	n/a	n/a	n/a	n/a	n/a	n/a	n/a	n/a	n/a	n/a	n/a	n/a	7	n/a	n/a
310.4	0.8	n/a	n/a	n/a	n/a	n/a	n/a	n/a	n/a	n/a	n/a	n/a	n/a	n/a	n/a	n/a	n/a	n/a	n/a	n/a	n/a	n/a	n/a	n/a	n/a	n/a	n/a	n/a	n/a	n/a	n/a	n/a	n/a	n/a	n/a	n/a	n/a	n/a	n/a	n/a	n/a	n/a	n/a	n/a	n/a	n/a	n/a	n/a	n/a	7	n/a	n/a
312	0.8	n/a	n/a	n/a	n/a	n/a	n/a	n/a	n/a	n/a	n/a	n/a	n/a	n/a	n/a	n/a	n/a	n/a	n/a	n/a	n/a	n/a	n/a	n/a	n/a	n/a	n/a	n/a	n/a	n/a	n/a	n/a	n/a	n/a	n/a	n/a	n/a	n/a	n/a	n/a	n/a	n/a	n/a	n/a	n/a	n/a	n/a	n/a	n/a	5	n/a	n/a
313.6	0.8	n/a	n/a	n/a	n/a	n/a	n/a	n/a	n/a	n/a	n/a	n/a	n/a	n/a	n/a	n/a	n/a	n/a	n/a	n/a	n/a	n/a	n/a	n/a	n/a	n/a	n/a	n/a	n/a	n/a	n/a	n/a	n/a	n/a	n/a	n/a	n/a	n/a	n/a	n/a	n/a	n/a	n/a	n/a	n/a	n/a	n/a	n/a	n/a	7	n/a	n/a
315.2	0.8	n/a	n/a	n/a	n/a	n/a	n/a	n/a	n/a	n/a	n/a	n/a	n/a	n/a	n/a	n/a	n/a	n/a	n/a	n/a	n/a	n/a	n/a	n/a	n/a	n/a	n/a	n/a	n/a	n/a	n/a	n/a	n/a	n/a	n/a	n/a	n/a	n/a	n/a	n/a	n/a	n/a	n/a	n/a	n/a	n/a	n/a	n/a	n/a	7	n/a	n/a
316.8	0.8	n/a	n/a	n/a	n/a	n/a	n/a	n/a	n/a	n/a	n/a	n/a	n/a	n/a	n/a	n/a	n/a	n/a	n/a	n/a	n/a	n/a	n/a	n/a	n/a	n/a	n/a	n/a	n/a	n/a	n/a	n/a	n/a	n/a	n/a	n/a	n/a	n/a	n/a	n/a	n/a	n/a	n/a	n/a	n/a	n/a	n/a	n/a	n/a	7	n/a	n/a
318.4	0.8	n/a	n/a	n/a	n/a	n/a	n/a	n/a	n/a	n/a	n/a	n/a	n/a	n/a	n/a	n/a	n/a	n/a	n/a	n/a	n/a	n/a	n/a	n/a	n/a	n/a	n/a	n/a	n/a	n/a	n/a	n/a	n/a	n/a	n/a	n/a	n/a	n/a	n/a	n/a	n/a	n/a	n/a	n/a	n/a	n/a	n/a	n/a	n/a	5	n/a	n/a
320	0.8	n/a	n/a	n/a	n/a	n/a	n/a	n/a	n/a	n/a	n/a	n/a	n/a	n/a	n/a	n/a	n/a	n/a	n/a	n/a	n/a	n/a	n/a	n/a	n/a	n/a	n/a	n/a	n/a	n/a	n/a	n/a	n/a	n/a	n/a	n/a	n/a	n/a	n/a	n/a	n/a	n/a	n/a	n/a	n/a	n/a	n/a	n/a	n/a	5	n/a	n/a
321.6	0.8	n/a	n/a	n/a	n/a	n/a	n/a	n/a	n/a	n/a	n/a	n/a	n/a	n/a	n/a	n/a	n/a	n/a	n/a	n/a	n/a	n/a	n/a	n/a	n/a	n/a	n/a	n/a	n/a	n/a	n/a	n/a	n/a	n/a	n/a	n/a	n/a	n/a	n/a	n/a	n/a	n/a	n/a	n/a	n/a	n/a	n/a	n/a	n/a	7	n/a	n/a
323.2	0.8	n/a	n/a	n/a	n/a	n/a	n/a	n/a	n/a	n/a	n/a	n/a	n/a	n/a	n/a	n/a	n/a	n/a	n/a	n/a	n/a	n/a	n/a	n/a	n/a	n/a	n/a	n/a	n/a	n/a	n/a	n/a	n/a	n/a	n/a	n/a	n/a	n/a	n/a	n/a	n/a	n/a	n/a	n/a	n/a	n/a	n/a	n/a	n/a	5	n/a	n/a
324.8	0.8	n/a	n/a	n/a	n/a	n/a	n/a	n/a	n/a	n/a	n/a	n/a	n/a	n/a	n/a	n/a	n/a	n/a	n/a	n/a	n/a	n/a	n/a	n/a	n/a	n/a	n/a	n/a	n/a	n/a	n/a	n/a	n/a	n/a	n/a	n/a	n/a	n/a	n/a	n/a	n/a	n/a	n/a	n/a	n/a	n/a	n/a	n/a	n/a	7	n/a	n/a
326.4	0.8	n/a	n/a	n/a	n/a	n/a	n/a	n/a	n/a	n/a	n/a	n/a	n/a	n/a	n/a	n/a	n/a	n/a	n/a	n/a	n/a	n/a	n/a	n/a	n/a	n/a	n/a	n/a	n/a	n/a	n/a	n/a	n/a	n/a	n/a	n/a	n/a	n/a	n/a	n/a	n/a	n/a	n/a	n/a	n/a	n/a	n/a	n/a	n/a	5	n/a	n/a
328	0.8	n/a	n/a	n/a	n/a	n/a	n/a	n/a	n/a	n/a	n/a	n/a	n/a	n/a	n/a	n/a	n/a	n/a	n/a	n/a	n/a	n/a	n/a	n/a	n/a	n/a	n/a	n/a	n/a	n/a	n/a	n/a	n/a	n/a	n/a	n/a	n/a	n/a	n/a	n/a	n/a	n/a	n/a	n/a	n/a	n/a	n/a	n/a	n/a	7	n/a	n/a
329.6	0.8	n/a	n/a	n/a	n/a	n/a	n/a	n/a	n/a	n/a	n/a	n/a	n/a	n/a	n/a	n/a	n/a	n/a	n/a	n/a	n/a	n/a	n/a	n/a	n/a	n/a	n/a	n/a	n/a	n/a	n/a	n/a	n/a	n/a	n/a	n/a	n/a	n/a	n/a	n/a	n/a	n/a	n/a	n/a	n/a	n/a	n/a	n/a	n/a	7	n/a	n/a
0.75	0	n/a	n/a	n/a	n/a	n/a	n/a	n/a	n/a	n/a	n/a	n/a	n/a	n/a	n/a	n/a	n/a	n/a	n/a	n/a	n/a	n/a	n/a	n/a	n/a	n/a	n/a	n/a	n/a	n/a	n/a	n/a	n/a	n/a	n/a	n/a	n/a	n/a	n/a	n/a	n/a	n/a	n/a	n/a	n/a	n/a	n/a	n/a	n/a	n/a	51	0.75
2.01	0	n/a	n/a	n/a	n/a	n/a	n/a	n/a	n/a	n/a	n/a	n/a	n/a	n/a	n/a	n/a	n/a	n/a	n/a	n/a	n/a	n/a	n/a	n/a	n/a	n/a	n/a	n/a	n/a	n/a	n/a	n/a	n/a	n/a	n/a	n/a	n/a	n/a	n/a	n/a	n/a	n/a	n/a	n/a	n/a	n/a	n/a	n/a	n/a	n/a	50	0.41
3.661	0	n/a	n/a	n/a	n/a	n/a	n/a	n/a	n/a	n/a	n/a	n/a	n/a	n/a	n/a	n/a	n/a	n/a	n/a	n/a	n/a	n/a	n/a	n/a	n/a	n/a	n/a	n/a	n/a	n/a	n/a	n/a	n/a	n/a	n/a	n/a	n/a	n/a	n/a	n/a	n/a	n/a	n/a	n/a	n/a	n/a	n/a	n/a	n/a	n/a	51	0.461
5.3	0	n/a	n/a	n/a	n/a	n/a	n/a	n/a	n/a	n/a	n/a	n/a	n/a	n/a	n/a	n/a	n/a	n/a	n/a	n/a	n/a	n/a	n/a	n/a	n/a	n/a	n/a	n/a	n/a	n/a	n/a	n/a	n/a	n/a	n/a	n/a	n/a	n/a	n/a	n/a	n/a	n/a	n/a	n/a	n/a	n/a	n/a	n/a	n/a	n/a	50	0.499999999999999
6.891	0	n/a	n/a	n/a	n/a	n/a	n/a	n/a	n/a	n/a	n/a	n/a	n/a	n/a	n/a	n/a	n/a	n/a	n/a	n/a	n/a	n/a	n/a	n/a	n/a	n/a	n/a	n/a	n/a	n/a	n/a	n/a	n/a	n/a	n/a	n/a	n/a	n/a	n/a	n/a	n/a	n/a	n/a	n/a	n/a	n/a	n/a	n/a	n/a	n/a	50	0.491
8.418	0	n/a	n/a	n/a	n/a	n/a	n/a	n/a	n/a	n/a	n/a	n/a	n/a	n/a	n/a	n/a	n/a	n/a	n/a	n/a	n/a	n/a	n/a	n/a	n/a	n/a	n/a	n/a	n/a	n/a	n/a	n/a	n/a	n/a	n/a	n/a	n/a	n/a	n/a	n/a	n/a	n/a	n/a	n/a	n/a	n/a	n/a	n/a	n/a	n/a	51	0.417999999999999
10.053	0	n/a	n/a	n/a	n/a	n/a	n/a	n/a	n/a	n/a	n/a	n/a	n/a	n/a	n/a	n/a	n/a	n/a	n/a	n/a	n/a	n/a	n/a	n/a	n/a	n/a	n/a	n/a	n/a	n/a	n/a	n/a	n/a	n/a	n/a	n/a	n/a	n/a	n/a	n/a	n/a	n/a	n/a	n/a	n/a	n/a	n/a	n/a	n/a	n/a	50	0.452999999999999
11.776	0	n/a	n/a	n/a	n/a	n/a	n/a	n/a	n/a	n/a	n/a	n/a	n/a	n/a	n/a	n/a	n/a	n/a	n/a	n/a	n/a	n/a	n/a	n/a	n/a	n/a	n/a	n/a	n/a	n/a	n/a	n/a	n/a	n/a	n/a	n/a	n/a	n/a	n/a	n/a	n/a	n/a	n/a	n/a	n/a	n/a	n/a	n/a	n/a	n/a	50	0.575999999999999
13.267	0	n/a	n/a	n/a	n/a	n/a	n/a	n/a	n/a	n/a	n/a	n/a	n/a	n/a	n/a	n/a	n/a	n/a	n/a	n/a	n/a	n/a	n/a	n/a	n/a	n/a	n/a	n/a	n/a	n/a	n/a	n/a	n/a	n/a	n/a	n/a	n/a	n/a	n/a	n/a	n/a	n/a	n/a	n/a	n/a	n/a	n/a	n/a	n/a	n/a	50	0.466999999999999
14.853	0	n/a	n/a	n/a	n/a	n/a	n/a	n/a	n/a	n/a	n/a	n/a	n/a	n/a	n/a	n/a	n/a	n/a	n/a	n/a	n/a	n/a	n/a	n/a	n/a	n/a	n/a	n/a	n/a	n/a	n/a	n/a	n/a	n/a	n/a	n/a	n/a	n/a	n/a	n/a	n/a	n/a	n/a	n/a	n/a	n/a	n/a	n/a	n/a	n/a	51	0.452999999999999
16.614	0	n/a	n/a	n/a	n/a	n/a	n/a	n/a	n/a	n/a	n/a	n/a	n/a	n/a	n/a	n/a	n/a	n/a	n/a	n/a	n/a	n/a	n/a	n/a	n/a	n/a	n/a	n/a	n/a	n/a	n/a	n/a	n/a	n/a	n/a	n/a	n/a	n/a	n/a	n/a	n/a	n/a	n/a	n/a	n/a	n/a	n/a	n/a	n/a	n/a	51	0.614000000000001
18.086	0	n/a	n/a	n/a	n/a	n/a	n/a	n/a	n/a	n/a	n/a	n/a	n/a	n/a	n/a	n/a	n/a	n/a	n/a	n/a	n/a	n/a	n/a	n/a	n/a	n/a	n/a	n/a	n/a	n/a	n/a	n/a	n/a	n/a	n/a	n/a	n/a	n/a	n/a	n/a	n/a	n/a	n/a	n/a	n/a	n/a	n/a	n/a	n/a	n/a	51	0.485999999999997
19.656	0	n/a	n/a	n/a	n/a	n/a	n/a	n/a	n/a	n/a	n/a	n/a	n/a	n/a	n/a	n/a	n/a	n/a	n/a	n/a	n/a	n/a	n/a	n/a	n/a	n/a	n/a	n/a	n/a	n/a	n/a	n/a	n/a	n/a	n/a	n/a	n/a	n/a	n/a	n/a	n/a	n/a	n/a	n/a	n/a	n/a	n/a	n/a	n/a	n/a	50	0.455999999999996
21.266	0	n/a	n/a	n/a	n/a	n/a	n/a	n/a	n/a	n/a	n/a	n/a	n/a	n/a	n/a	n/a	n/a	n/a	n/a	n/a	n/a	n/a	n/a	n/a	n/a	n/a	n/a	n/a	n/a	n/a	n/a	n/a	n/a	n/a	n/a	n/a	n/a	n/a	n/a	n/a	n/a	n/a	n/a	n/a	n/a	n/a	n/a	n/a	n/a	n/a	50	0.465999999999998
22.933	0	n/a	n/a	n/a	n/a	n/a	n/a	n/a	n/a	n/a	n/a	n/a	n/a	n/a	n/a	n/a	n/a	n/a	n/a	n/a	n/a	n/a	n/a	n/a	n/a	n/a	n/a	n/a	n/a	n/a	n/a	n/a	n/a	n/a	n/a	n/a	n/a	n/a	n/a	n/a	n/a	n/a	n/a	n/a	n/a	n/a	n/a	n/a	n/a	n/a	51	0.532999999999998
24.538	0	n/a	n/a	n/a	n/a	n/a	n/a	n/a	n/a	n/a	n/a	n/a	n/a	n/a	n/a	n/a	n/a	n/a	n/a	n/a	n/a	n/a	n/a	n/a	n/a	n/a	n/a	n/a	n/a	n/a	n/a	n/a	n/a	n/a	n/a	n/a	n/a	n/a	n/a	n/a	n/a	n/a	n/a	n/a	n/a	n/a	n/a	n/a	n/a	n/a	51	0.538
26.11	0	n/a	n/a	n/a	n/a	n/a	n/a	n/a	n/a	n/a	n/a	n/a	n/a	n/a	n/a	n/a	n/a	n/a	n/a	n/a	n/a	n/a	n/a	n/a	n/a	n/a	n/a	n/a	n/a	n/a	n/a	n/a	n/a	n/a	n/a	n/a	n/a	n/a	n/a	n/a	n/a	n/a	n/a	n/a	n/a	n/a	n/a	n/a	n/a	n/a	50	0.509999999999998
27.693	0	n/a	n/a	n/a	n/a	n/a	n/a	n/a	n/a	n/a	n/a	n/a	n/a	n/a	n/a	n/a	n/a	n/a	n/a	n/a	n/a	n/a	n/a	n/a	n/a	n/a	n/a	n/a	n/a	n/a	n/a	n/a	n/a	n/a	n/a	n/a	n/a	n/a	n/a	n/a	n/a	n/a	n/a	n/a	n/a	n/a	n/a	n/a	n/a	n/a	51	0.492999999999999
29.262	0	n/a	n/a	n/a	n/a	n/a	n/a	n/a	n/a	n/a	n/a	n/a	n/a	n/a	n/a	n/a	n/a	n/a	n/a	n/a	n/a	n/a	n/a	n/a	n/a	n/a	n/a	n/a	n/a	n/a	n/a	n/a	n/a	n/a	n/a	n/a	n/a	n/a	n/a	n/a	n/a	n/a	n/a	n/a	n/a	n/a	n/a	n/a	n/a	n/a	51	0.462
30.87	0	n/a	n/a	n/a	n/a	n/a	n/a	n/a	n/a	n/a	n/a	n/a	n/a	n/a	n/a	n/a	n/a	n/a	n/a	n/a	n/a	n/a	n/a	n/a	n/a	n/a	n/a	n/a	n/a	n/a	n/a	n/a	n/a	n/a	n/a	n/a	n/a	n/a	n/a	n/a	n/a	n/a	n/a	n/a	n/a	n/a	n/a	n/a	n/a	n/a	50	0.469999999999999
32.553	0	n/a	n/a	n/a	n/a	n/a	n/a	n/a	n/a	n/a	n/a	n/a	n/a	n/a	n/a	n/a	n/a	n/a	n/a	n/a	n/a	n/a	n/a	n/a	n/a	n/a	n/a	n/a	n/a	n/a	n/a	n/a	n/a	n/a	n/a	n/a	n/a	n/a	n/a	n/a	n/a	n/a	n/a	n/a	n/a	n/a	n/a	n/a	n/a	n/a	50	0.552999999999997
34.021	0	n/a	n/a	n/a	n/a	n/a	n/a	n/a	n/a	n/a	n/a	n/a	n/a	n/a	n/a	n/a	n/a	n/a	n/a	n/a	n/a	n/a	n/a	n/a	n/a	n/a	n/a	n/a	n/a	n/a	n/a	n/a	n/a	n/a	n/a	n/a	n/a	n/a	n/a	n/a	n/a	n/a	n/a	n/a	n/a	n/a	n/a	n/a	n/a	n/a	51	0.420999999999999
